subject_nr,session,walk,trial,choice,rt,reward,punish,attention_trial,attention_side,attention_response,anxiety
10324053,1,3,1,1,1586,1,0,0,NA,NA,28
10324053,1,3,2,1,1752,1,0,0,NA,NA,28
10324053,1,3,3,1,1313,0,0,0,NA,NA,28
10324053,1,3,4,2,1352,0,0,0,NA,NA,28
10324053,1,3,5,1,1283,1,0,0,NA,NA,28
10324053,1,3,6,1,1146,0,0,0,NA,NA,28
10324053,1,3,7,2,1054,0,0,0,NA,NA,28
10324053,1,3,8,1,1329,1,0,0,NA,NA,28
10324053,1,3,9,1,1143,0,0,0,NA,NA,28
10324053,1,3,10,2,1139,0,0,0,NA,NA,28
10324053,1,3,11,1,1213,0,0,0,NA,NA,28
10324053,1,3,12,2,1266,0,0,0,NA,NA,28
10324053,1,3,13,1,1302,1,0,0,NA,NA,28
10324053,1,3,14,1,1051,1,0,0,NA,NA,28
10324053,1,3,15,1,1075,0,0,0,NA,NA,28
10324053,1,3,16,2,1124,0,0,0,NA,NA,28
10324053,1,3,17,1,1193,0,0,0,NA,NA,28
10324053,1,3,18,2,1181,0,0,0,NA,NA,28
10324053,1,3,19,1,1202,0,0,0,NA,NA,28
10324053,1,3,20,1,1324,1,0,0,NA,NA,28
10324053,1,3,21,1,1004,0,0,0,NA,NA,28
10324053,1,3,22,1,1197,0,0,0,NA,NA,28
10324053,1,3,23,1,1293,0,1,0,NA,NA,28
10324053,1,3,24,1,1252,0,0,0,NA,NA,28
10324053,1,3,25,2,1056,0,0,0,NA,NA,28
10324053,1,3,26,2,1064,0,0,0,NA,NA,28
10324053,1,3,27,2,1180,0,0,0,NA,NA,28
10324053,1,3,28,1,1181,1,1,0,NA,NA,28
10324053,1,3,29,1,1196,1,1,0,NA,NA,28
10324053,1,3,30,1,1046,0,0,0,NA,NA,28
10324053,1,3,31,1,1077,1,0,0,NA,NA,28
10324053,1,3,32,1,1192,0,0,0,NA,NA,28
10324053,1,3,33,1,1060,1,1,0,NA,NA,28
10324053,1,3,34,1,1319,0,0,0,NA,NA,28
10324053,1,3,35,1,993,0,0,0,NA,NA,28
10324053,1,3,36,1,1014,1,0,0,NA,NA,28
10324053,1,3,37,1,1096,0,0,0,NA,NA,28
10324053,1,3,38,2,1022,0,0,0,NA,NA,28
10324053,1,3,39,2,1252,0,0,0,NA,NA,28
10324053,1,3,40,1,1065,0,0,0,NA,NA,28
10324053,1,3,41,1,1033,1,0,0,NA,NA,28
10324053,1,3,42,1,1088,0,0,0,NA,NA,28
10324053,1,3,43,1,967,0,1,0,NA,NA,28
10324053,1,3,44,1,955,1,0,0,NA,NA,28
10324053,1,3,45,1,1194,0,0,0,NA,NA,28
10324053,1,3,46,1,1058,0,0,0,NA,NA,28
10324053,1,3,47,1,1013,1,0,0,NA,NA,28
10324053,1,3,48,1,1075,0,1,0,NA,NA,28
10324053,1,3,49,1,1453,1,0,0,NA,NA,28
10324053,1,3,50,1,1211,0,0,0,NA,NA,28
10324053,1,3,51,1,1202,0,1,0,NA,NA,28
10324053,1,3,52,1,1128,1,1,0,NA,NA,28
10324053,1,3,53,1,1121,1,0,0,NA,NA,28
10324053,1,3,54,1,1107,1,0,0,NA,NA,28
10324053,1,3,55,1,1180,1,0,0,NA,NA,28
10324053,1,3,56,1,1122,0,1,0,NA,NA,28
10324053,1,3,57,2,1389,0,0,0,NA,NA,28
10324053,1,3,58,2,1055,0,0,0,NA,NA,28
10324053,1,3,59,2,1072,0,0,0,NA,NA,28
10324053,1,3,60,1,990,1,1,0,NA,NA,28
10324053,1,3,61,1,1170,1,1,0,NA,NA,28
10324053,1,3,62,1,1040,0,1,0,NA,NA,28
10324053,1,3,63,1,1023,0,1,0,NA,NA,28
10324053,1,3,64,1,1326,1,1,0,NA,NA,28
10324053,1,3,65,1,1131,1,0,0,NA,NA,28
10324053,1,3,66,1,997,0,1,0,NA,NA,28
10324053,1,3,67,1,1043,0,1,0,NA,NA,28
10324053,1,3,68,2,1025,0,0,0,NA,NA,28
10324053,1,3,69,2,1023,1,0,0,NA,NA,28
10324053,1,3,70,2,1010,0,0,0,NA,NA,28
10324053,1,3,71,2,1029,0,0,0,NA,NA,28
10324053,1,3,72,1,1019,1,0,0,NA,NA,28
10324053,1,3,73,1,1140,1,1,0,NA,NA,28
10324053,1,3,74,1,1019,1,1,0,NA,NA,28
10324053,1,3,75,1,1017,1,1,0,NA,NA,28
10324053,1,3,76,1,1037,1,0,0,NA,NA,28
10324053,1,3,77,1,1030,1,0,0,NA,NA,28
10324053,1,3,78,1,1074,1,0,0,NA,NA,28
10324053,1,3,79,1,1057,1,0,0,NA,NA,28
10324053,1,3,80,1,1022,0,0,0,NA,NA,28
10324053,1,3,81,1,1050,0,0,0,NA,NA,28
10324053,1,3,82,1,1082,0,0,0,NA,NA,28
10324053,1,3,83,1,1035,1,0,0,NA,NA,28
10324053,1,3,84,1,1056,0,0,0,NA,NA,28
10324053,1,3,85,1,1041,1,1,0,NA,NA,28
10324053,1,3,86,1,1094,0,0,0,NA,NA,28
10324053,1,3,87,1,1032,0,0,0,NA,NA,28
10324053,1,3,88,1,1049,1,0,0,NA,NA,28
10324053,1,3,89,1,1070,1,0,0,NA,NA,28
10324053,1,3,90,1,1039,1,0,0,NA,NA,28
10324053,1,3,91,1,1035,1,0,0,NA,NA,28
10324053,1,3,92,1,1005,0,0,0,NA,NA,28
10324053,1,3,93,1,1008,1,1,0,NA,NA,28
10324053,1,3,94,1,1012,1,0,0,NA,NA,28
10324053,1,3,95,1,984,1,0,0,NA,NA,28
10324053,1,3,96,1,1029,1,0,0,NA,NA,28
10324053,1,3,97,1,1041,0,0,0,NA,NA,28
10324053,1,3,98,1,1039,1,0,0,NA,NA,28
10324053,1,3,99,1,1020,0,0,0,NA,NA,28
10324053,1,3,100,1,981,0,0,0,NA,NA,28
10324053,1,3,101,1,1065,0,0,0,NA,NA,28
10324053,1,3,102,1,1128,0,0,0,NA,NA,28
10324053,1,3,103,1,1005,0,0,0,NA,NA,28
10324053,1,3,104,2,1016,1,0,0,NA,NA,28
10324053,1,3,105,2,997,1,0,0,NA,NA,28
10324053,1,3,106,2,1109,1,0,0,NA,NA,28
10324053,1,3,107,2,989,0,0,0,NA,NA,28
10324053,1,3,108,2,1057,1,0,0,NA,NA,28
10324053,1,3,109,2,1004,0,0,0,NA,NA,28
10324053,1,3,110,2,982,1,0,0,NA,NA,28
10324053,1,3,111,2,1041,0,0,0,NA,NA,28
10324053,1,3,112,2,1059,0,0,0,NA,NA,28
10324053,1,3,113,2,1038,0,0,0,NA,NA,28
10324053,1,3,114,2,1011,0,0,0,NA,NA,28
10324053,1,3,115,1,959,1,1,0,NA,NA,28
10324053,1,3,116,1,1004,0,1,0,NA,NA,28
10324053,1,3,117,1,1117,0,0,0,NA,NA,28
10324053,1,3,118,2,965,1,0,0,NA,NA,28
10324053,1,3,119,2,1007,0,0,0,NA,NA,28
10324053,1,3,120,2,1036,1,0,0,NA,NA,28
10324053,1,3,121,2,1042,1,0,0,NA,NA,28
10324053,1,3,122,2,990,1,0,0,NA,NA,28
10324053,1,3,123,2,1008,0,0,0,NA,NA,28
10324053,1,3,124,2,1018,1,0,0,NA,NA,28
10324053,1,3,125,2,987,1,0,0,NA,NA,28
10324053,1,3,126,2,1028,0,0,0,NA,NA,28
10324053,1,3,127,2,1064,1,0,0,NA,NA,28
10324053,1,3,128,2,1034,1,0,0,NA,NA,28
10324053,1,3,129,2,1024,0,0,0,NA,NA,28
10324053,1,3,130,2,1014,0,0,0,NA,NA,28
10324053,1,3,131,2,999,1,0,0,NA,NA,28
10324053,1,3,132,2,1109,0,0,0,NA,NA,28
10324053,1,3,133,2,1023,0,0,0,NA,NA,28
10324053,1,3,134,2,1107,1,0,0,NA,NA,28
10324053,1,3,135,2,1110,1,0,0,NA,NA,28
10324053,1,3,136,2,952,1,0,0,NA,NA,28
10324053,1,3,137,1,1016,1,0,0,NA,NA,28
10324053,1,3,138,1,1063,0,1,0,NA,NA,28
10324053,1,3,139,2,1489,1,0,0,NA,NA,28
10324053,1,3,140,2,1043,1,0,0,NA,NA,28
10324053,1,3,141,2,1420,0,0,1,R,1,28
10324053,1,3,142,2,1317,1,0,0,NA,NA,28
10324053,1,3,143,2,1186,1,0,0,NA,NA,28
10324053,1,3,144,2,1101,1,0,0,NA,NA,28
10324053,1,3,145,2,1082,1,0,0,NA,NA,28
10324053,1,3,146,2,1102,1,0,0,NA,NA,28
10324053,1,3,147,2,1044,0,0,2,R,2,28
10324053,1,3,148,1,1132,0,1,0,NA,NA,28
10324053,1,3,149,1,1164,0,1,0,NA,NA,28
10324053,1,3,150,2,1259,1,0,0,NA,NA,28
10324053,1,3,151,2,1308,0,0,0,NA,NA,28
10324053,1,3,152,2,1146,0,0,0,NA,NA,28
10324053,1,3,153,2,1015,1,0,0,NA,NA,28
10324053,1,3,154,2,1082,1,0,0,NA,NA,28
10324053,1,3,155,2,1175,0,0,0,NA,NA,28
10324053,1,3,156,2,1163,0,0,0,NA,NA,28
10324053,1,3,157,2,1138,0,0,0,NA,NA,28
10324053,1,3,158,1,1098,1,1,0,NA,NA,28
10324053,1,3,159,1,1130,1,1,0,NA,NA,28
10324053,1,3,160,1,1022,1,0,0,NA,NA,28
10324053,1,3,161,1,949,1,1,0,NA,NA,28
10324053,1,3,162,1,958,0,1,0,NA,NA,28
10324053,1,3,163,1,1293,0,1,0,NA,NA,28
10324053,1,3,164,1,966,1,1,0,NA,NA,28
10324053,1,3,165,1,1080,0,0,0,NA,NA,28
10324053,1,3,166,1,2058,1,0,0,NA,NA,28
10324053,1,3,167,1,1264,0,0,0,NA,NA,28
10324053,1,3,168,1,1406,0,1,0,NA,NA,28
10324053,1,3,169,1,2040,0,1,0,NA,NA,28
10324053,1,3,170,1,1496,0,1,0,NA,NA,28
10324053,1,3,171,2,1096,0,0,0,NA,NA,28
10324053,1,3,172,2,1091,0,0,0,NA,NA,28
10324053,1,3,173,2,1070,0,0,0,NA,NA,28
10324053,1,3,175,1,1007,1,1,0,NA,NA,28
10324053,1,3,176,1,1004,1,1,0,NA,NA,28
10324053,1,3,177,1,986,1,0,0,NA,NA,28
10324053,1,3,178,1,1405,1,1,0,NA,NA,28
10324053,1,3,179,1,1063,1,1,0,NA,NA,28
10324053,1,3,180,1,1080,0,0,0,NA,NA,28
10324053,1,3,181,1,1045,0,0,0,NA,NA,28
10324053,1,3,182,1,1009,1,1,0,NA,NA,28
10324053,1,3,183,1,928,0,1,0,NA,NA,28
10324053,1,3,184,1,1022,1,0,0,NA,NA,28
10324053,1,3,185,1,1042,1,0,0,NA,NA,28
10324053,1,3,186,1,1040,0,1,0,NA,NA,28
10324053,1,3,187,1,1039,1,0,0,NA,NA,28
10324053,1,3,188,1,1024,1,0,0,NA,NA,28
10324053,1,3,189,1,1237,0,0,0,NA,NA,28
10324053,1,3,190,1,982,1,1,0,NA,NA,28
10324053,1,3,191,1,1024,0,1,0,NA,NA,28
10324053,1,3,192,1,1188,0,1,0,NA,NA,28
10324053,1,3,193,1,1007,1,1,0,NA,NA,28
10324053,1,3,194,1,981,1,0,0,NA,NA,28
10324053,1,3,195,1,987,1,0,0,NA,NA,28
10324053,1,3,196,1,1064,1,1,0,NA,NA,28
10324053,1,3,197,1,1051,1,1,0,NA,NA,28
10324053,1,3,198,1,1023,1,0,0,NA,NA,28
10324053,1,3,199,1,1001,0,0,0,NA,NA,28
10324053,1,3,200,1,1035,0,1,0,NA,NA,28
10324053,1,3,201,1,986,0,0,3,R,3,28
10324053,2,1,1,2,1387,0,0,0,NA,NA,10
10324053,2,1,2,1,1394,1,0,0,NA,NA,10
10324053,2,1,3,1,1101,0,0,0,NA,NA,10
10324053,2,1,4,1,1330,1,0,0,NA,NA,10
10324053,2,1,5,1,1093,1,0,0,NA,NA,10
10324053,2,1,6,1,993,1,0,0,NA,NA,10
10324053,2,1,7,1,1038,1,0,0,NA,NA,10
10324053,2,1,8,1,1006,0,0,0,NA,NA,10
10324053,2,1,9,1,984,1,0,0,NA,NA,10
10324053,2,1,10,1,1117,1,0,0,NA,NA,10
10324053,2,1,11,1,954,1,0,0,NA,NA,10
10324053,2,1,12,1,1041,1,0,0,NA,NA,10
10324053,2,1,13,1,929,1,0,0,NA,NA,10
10324053,2,1,14,1,942,1,0,0,NA,NA,10
10324053,2,1,15,1,973,1,0,0,NA,NA,10
10324053,2,1,16,1,992,0,0,0,NA,NA,10
10324053,2,1,17,1,972,1,0,0,NA,NA,10
10324053,2,1,18,1,932,0,1,0,NA,NA,10
10324053,2,1,19,1,947,1,0,0,NA,NA,10
10324053,2,1,20,1,922,0,0,0,NA,NA,10
10324053,2,1,21,1,987,0,0,0,NA,NA,10
10324053,2,1,22,1,919,0,0,0,NA,NA,10
10324053,2,1,23,2,1023,1,0,0,NA,NA,10
10324053,2,1,24,2,1042,0,0,1,L,1,10
10324053,2,1,25,2,1071,1,0,0,NA,NA,10
10324053,2,1,26,2,989,0,0,0,NA,NA,10
10324053,2,1,27,2,1029,0,0,0,NA,NA,10
10324053,2,1,28,2,1030,1,0,0,NA,NA,10
10324053,2,1,29,2,969,0,0,0,NA,NA,10
10324053,2,1,30,1,989,1,0,0,NA,NA,10
10324053,2,1,31,1,955,1,0,0,NA,NA,10
10324053,2,1,32,1,933,1,0,0,NA,NA,10
10324053,2,1,33,1,905,1,0,0,NA,NA,10
10324053,2,1,34,1,934,1,0,0,NA,NA,10
10324053,2,1,35,1,981,0,0,0,NA,NA,10
10324053,2,1,36,1,946,0,0,0,NA,NA,10
10324053,2,1,37,1,1005,0,0,0,NA,NA,10
10324053,2,1,38,1,932,0,0,0,NA,NA,10
10324053,2,1,39,1,983,0,0,0,NA,NA,10
10324053,2,1,40,1,974,0,0,0,NA,NA,10
10324053,2,1,41,1,970,0,1,0,NA,NA,10
10324053,2,1,42,2,989,0,0,0,NA,NA,10
10324053,2,1,43,2,961,1,0,0,NA,NA,10
10324053,2,1,44,2,917,0,0,0,NA,NA,10
10324053,2,1,45,2,946,0,0,0,NA,NA,10
10324053,2,1,46,2,908,0,0,0,NA,NA,10
10324053,2,1,47,1,963,0,1,0,NA,NA,10
10324053,2,1,48,1,1025,1,0,0,NA,NA,10
10324053,2,1,49,1,955,1,0,0,NA,NA,10
10324053,2,1,50,1,1007,1,1,0,NA,NA,10
10324053,2,1,51,1,1020,1,0,0,NA,NA,10
10324053,2,1,52,1,967,1,1,0,NA,NA,10
10324053,2,1,53,1,1000,1,0,0,NA,NA,10
10324053,2,1,54,1,931,1,1,0,NA,NA,10
10324053,2,1,55,1,967,1,0,0,NA,NA,10
10324053,2,1,56,1,944,0,1,0,NA,NA,10
10324053,2,1,57,1,1050,1,0,0,NA,NA,10
10324053,2,1,58,1,959,1,1,0,NA,NA,10
10324053,2,1,59,1,971,0,1,0,NA,NA,10
10324053,2,1,60,1,1145,1,1,0,NA,NA,10
10324053,2,1,61,1,1010,0,0,0,NA,NA,10
10324053,2,1,62,1,927,1,1,0,NA,NA,10
10324053,2,1,63,1,992,1,1,0,NA,NA,10
10324053,2,1,64,1,949,0,0,0,NA,NA,10
10324053,2,1,65,1,941,0,0,0,NA,NA,10
10324053,2,1,66,1,1006,0,0,0,NA,NA,10
10324053,2,1,67,2,1013,1,0,0,NA,NA,10
10324053,2,1,68,2,962,1,0,0,NA,NA,10
10324053,2,1,69,2,969,1,0,0,NA,NA,10
10324053,2,1,70,2,949,1,0,0,NA,NA,10
10324053,2,1,71,2,959,1,0,0,NA,NA,10
10324053,2,1,72,2,942,0,0,0,NA,NA,10
10324053,2,1,73,2,925,1,0,0,NA,NA,10
10324053,2,1,74,2,953,1,0,0,NA,NA,10
10324053,2,1,75,2,985,0,0,0,NA,NA,10
10324053,2,1,76,2,990,1,0,0,NA,NA,10
10324053,2,1,77,2,1103,0,0,0,NA,NA,10
10324053,2,1,78,2,968,1,0,0,NA,NA,10
10324053,2,1,79,2,960,1,0,0,NA,NA,10
10324053,2,1,80,2,959,1,0,0,NA,NA,10
10324053,2,1,81,2,998,1,0,0,NA,NA,10
10324053,2,1,82,2,1002,1,0,0,NA,NA,10
10324053,2,1,83,2,941,1,0,0,NA,NA,10
10324053,2,1,84,2,978,1,0,0,NA,NA,10
10324053,2,1,85,2,1027,1,0,0,NA,NA,10
10324053,2,1,86,2,915,0,0,0,NA,NA,10
10324053,2,1,87,2,959,0,0,0,NA,NA,10
10324053,2,1,88,2,912,0,0,0,NA,NA,10
10324053,2,1,89,2,925,1,0,0,NA,NA,10
10324053,2,1,90,2,929,0,0,0,NA,NA,10
10324053,2,1,91,2,946,1,0,0,NA,NA,10
10324053,2,1,92,2,1125,0,0,0,NA,NA,10
10324053,2,1,93,2,1066,1,0,0,NA,NA,10
10324053,2,1,94,2,944,0,0,0,NA,NA,10
10324053,2,1,95,2,985,1,0,0,NA,NA,10
10324053,2,1,96,2,979,0,0,0,NA,NA,10
10324053,2,1,97,2,976,0,0,0,NA,NA,10
10324053,2,1,98,2,979,0,0,0,NA,NA,10
10324053,2,1,99,2,957,0,0,0,NA,NA,10
10324053,2,1,100,2,938,1,0,0,NA,NA,10
10324053,2,1,101,2,1114,0,0,0,NA,NA,10
10324053,2,1,102,2,945,0,0,0,NA,NA,10
10324053,2,1,103,2,1057,0,0,0,NA,NA,10
10324053,2,1,104,2,929,1,0,0,NA,NA,10
10324053,2,1,105,2,949,0,0,0,NA,NA,10
10324053,2,1,106,2,938,0,0,0,NA,NA,10
10324053,2,1,107,2,957,0,0,3,R,3,10
10324053,2,1,108,1,1042,1,1,0,NA,NA,10
10324053,2,1,109,1,942,1,1,0,NA,NA,10
10324053,2,1,110,1,992,0,0,0,NA,NA,10
10324053,2,1,111,1,954,1,0,0,NA,NA,10
10324053,2,1,112,1,991,1,1,0,NA,NA,10
10324053,2,1,113,1,965,1,0,0,NA,NA,10
10324053,2,1,114,1,990,1,1,0,NA,NA,10
10324053,2,1,115,1,935,1,0,0,NA,NA,10
10324053,2,1,116,1,997,1,1,0,NA,NA,10
10324053,2,1,117,1,968,0,1,0,NA,NA,10
10324053,2,1,118,1,1031,1,1,0,NA,NA,10
10324053,2,1,119,1,953,0,1,0,NA,NA,10
10324053,2,1,120,1,963,1,1,0,NA,NA,10
10324053,2,1,121,1,1016,1,1,0,NA,NA,10
10324053,2,1,122,1,992,1,1,0,NA,NA,10
10324053,2,1,123,1,1010,1,0,0,NA,NA,10
10324053,2,1,124,1,1009,0,1,0,NA,NA,10
10324053,2,1,125,1,973,0,1,0,NA,NA,10
10324053,2,1,126,1,951,1,0,0,NA,NA,10
10324053,2,1,127,1,1020,0,1,0,NA,NA,10
10324053,2,1,128,1,1042,1,1,0,NA,NA,10
10324053,2,1,129,1,1193,0,0,0,NA,NA,10
10324053,2,1,130,1,1012,0,0,0,NA,NA,10
10324053,2,1,131,1,966,1,1,0,NA,NA,10
10324053,2,1,132,1,971,0,0,0,NA,NA,10
10324053,2,1,133,1,1081,0,0,0,NA,NA,10
10324053,2,1,134,1,1012,0,1,0,NA,NA,10
10324053,2,1,135,1,1021,0,1,0,NA,NA,10
10324053,2,1,136,2,1012,0,0,0,NA,NA,10
10324053,2,1,137,2,1014,0,0,0,NA,NA,10
10324053,2,1,138,2,1095,0,0,0,NA,NA,10
10324053,2,1,139,1,1013,0,1,0,NA,NA,10
10324053,2,1,140,1,930,0,1,0,NA,NA,10
10324053,2,1,141,1,1057,0,1,0,NA,NA,10
10324053,2,1,142,2,1028,0,0,0,NA,NA,10
10324053,2,1,143,2,992,1,0,0,NA,NA,10
10324053,2,1,144,2,935,0,0,0,NA,NA,10
10324053,2,1,145,2,984,0,0,0,NA,NA,10
10324053,2,1,146,2,986,0,0,0,NA,NA,10
10324053,2,1,147,2,999,0,0,0,NA,NA,10
10324053,2,1,148,2,946,0,0,0,NA,NA,10
10324053,2,1,149,2,919,0,0,0,NA,NA,10
10324053,2,1,150,1,966,0,1,0,NA,NA,10
10324053,2,1,151,1,965,0,0,0,NA,NA,10
10324053,2,1,152,1,971,0,0,0,NA,NA,10
10324053,2,1,153,1,998,1,1,0,NA,NA,10
10324053,2,1,154,1,1011,0,1,0,NA,NA,10
10324053,2,1,155,1,971,0,0,0,NA,NA,10
10324053,2,1,156,1,1018,0,0,0,NA,NA,10
10324053,2,1,157,1,1020,1,0,0,NA,NA,10
10324053,2,1,158,1,992,0,0,0,NA,NA,10
10324053,2,1,159,1,973,0,0,0,NA,NA,10
10324053,2,1,160,1,1068,1,0,0,NA,NA,10
10324053,2,1,161,1,948,0,0,0,NA,NA,10
10324053,2,1,162,1,1068,1,0,0,NA,NA,10
10324053,2,1,163,1,1092,0,0,0,NA,NA,10
10324053,2,1,164,1,946,1,0,0,NA,NA,10
10324053,2,1,165,1,952,0,0,0,NA,NA,10
10324053,2,1,166,1,962,0,0,0,NA,NA,10
10324053,2,1,167,1,932,0,1,0,NA,NA,10
10324053,2,1,168,2,1010,0,0,0,NA,NA,10
10324053,2,1,169,2,978,0,0,0,NA,NA,10
10324053,2,1,170,2,1007,0,0,0,NA,NA,10
10324053,2,1,171,1,971,0,0,0,NA,NA,10
10324053,2,1,172,1,960,0,0,0,NA,NA,10
10324053,2,1,173,1,985,0,0,0,NA,NA,10
10324053,2,1,174,1,995,0,0,0,NA,NA,10
10324053,2,1,175,1,1097,1,0,0,NA,NA,10
10324053,2,1,176,1,947,1,0,0,NA,NA,10
10324053,2,1,177,1,979,0,0,0,NA,NA,10
10324053,2,1,178,1,939,0,0,0,NA,NA,10
10324053,2,1,179,1,1008,1,0,0,NA,NA,10
10324053,2,1,180,1,973,0,0,0,NA,NA,10
10324053,2,1,181,1,1137,0,0,0,NA,NA,10
10324053,2,1,182,1,956,0,1,0,NA,NA,10
10324053,2,1,183,2,1050,1,0,0,NA,NA,10
10324053,2,1,184,2,989,0,0,0,NA,NA,10
10324053,2,1,185,2,971,0,0,0,NA,NA,10
10324053,2,1,186,2,1029,0,0,0,NA,NA,10
10324053,2,1,187,1,1068,0,0,0,NA,NA,10
10324053,2,1,188,1,999,1,1,0,NA,NA,10
10324053,2,1,189,1,976,1,0,0,NA,NA,10
10324053,2,1,190,1,1022,0,0,0,NA,NA,10
10324053,2,1,191,1,966,0,0,0,NA,NA,10
10324053,2,1,192,1,1022,0,1,0,NA,NA,10
10324053,2,1,193,2,1044,1,0,0,NA,NA,10
10324053,2,1,194,1,1084,0,1,0,NA,NA,10
10324053,2,1,195,1,976,1,1,0,NA,NA,10
10324053,2,1,196,1,1068,1,1,0,NA,NA,10
10324053,2,1,197,1,1071,0,1,0,NA,NA,10
10324053,2,1,198,1,1059,0,0,0,NA,NA,10
10324053,2,1,199,1,989,0,1,0,NA,NA,10
10324053,2,1,200,1,993,0,0,0,NA,NA,10
10324053,2,1,201,2,1139,0,0,3,R,3,10
23019414,1,1,1,2,1579,0,0,0,NA,NA,8
23019414,1,1,2,2,1447,0,0,0,NA,NA,8
23019414,1,1,3,1,1078,0,0,0,NA,NA,8
23019414,1,1,4,1,1075,1,0,0,NA,NA,8
23019414,1,1,5,1,972,1,0,0,NA,NA,8
23019414,1,1,6,1,1057,0,0,0,NA,NA,8
23019414,1,1,7,1,939,0,0,0,NA,NA,8
23019414,1,1,8,2,1003,0,0,0,NA,NA,8
23019414,1,1,9,1,1140,1,0,0,NA,NA,8
23019414,1,1,10,1,1089,1,0,0,NA,NA,8
23019414,1,1,11,1,1058,1,1,0,NA,NA,8
23019414,1,1,12,1,1016,1,0,0,NA,NA,8
23019414,1,1,13,1,1068,0,0,0,NA,NA,8
23019414,1,1,14,1,1103,0,0,0,NA,NA,8
23019414,1,1,15,1,1119,0,0,0,NA,NA,8
23019414,1,1,16,1,985,0,0,0,NA,NA,8
23019414,1,1,17,2,1025,1,0,0,NA,NA,8
23019414,1,1,18,2,938,0,0,0,NA,NA,8
23019414,1,1,19,2,986,0,0,0,NA,NA,8
23019414,1,1,20,2,994,1,0,0,NA,NA,8
23019414,1,1,21,2,1009,1,0,0,NA,NA,8
23019414,1,1,22,2,947,1,0,0,NA,NA,8
23019414,1,1,23,2,959,1,0,0,NA,NA,8
23019414,1,1,24,2,907,1,0,0,NA,NA,8
23019414,1,1,25,2,1037,1,0,0,NA,NA,8
23019414,1,1,26,2,947,0,0,0,NA,NA,8
23019414,1,1,27,2,945,0,0,0,NA,NA,8
23019414,1,1,28,1,999,0,0,0,NA,NA,8
23019414,1,1,29,2,1010,0,0,0,NA,NA,8
23019414,1,1,30,1,1145,0,1,0,NA,NA,8
23019414,1,1,31,2,1016,0,0,1,R,1,8
23019414,1,1,32,1,1323,0,0,0,NA,NA,8
23019414,1,1,33,1,1007,1,0,0,NA,NA,8
23019414,1,1,34,1,991,0,0,0,NA,NA,8
23019414,1,1,35,1,1039,0,1,0,NA,NA,8
23019414,1,1,36,2,1048,1,0,0,NA,NA,8
23019414,1,1,37,2,1018,0,0,0,NA,NA,8
23019414,1,1,38,2,1193,0,0,0,NA,NA,8
23019414,1,1,39,1,1221,0,1,0,NA,NA,8
23019414,1,1,40,2,1031,0,0,0,NA,NA,8
23019414,1,1,41,2,924,0,0,0,NA,NA,8
23019414,1,1,42,2,913,0,0,0,NA,NA,8
23019414,1,1,43,1,1062,0,0,0,NA,NA,8
23019414,1,1,44,1,971,1,0,0,NA,NA,8
23019414,1,1,45,1,1040,0,0,0,NA,NA,8
23019414,1,1,46,1,937,1,0,0,NA,NA,8
23019414,1,1,47,1,989,1,0,0,NA,NA,8
23019414,1,1,48,1,1036,1,0,0,NA,NA,8
23019414,1,1,49,1,984,0,1,0,NA,NA,8
23019414,1,1,50,2,1023,0,0,0,NA,NA,8
23019414,1,1,51,2,901,0,0,0,NA,NA,8
23019414,1,1,52,1,946,0,1,0,NA,NA,8
23019414,1,1,53,2,1064,1,0,0,NA,NA,8
23019414,1,1,54,2,951,1,0,0,NA,NA,8
23019414,1,1,55,2,998,0,0,0,NA,NA,8
23019414,1,1,56,2,1008,1,0,0,NA,NA,8
23019414,1,1,57,2,1066,0,0,0,NA,NA,8
23019414,1,1,58,2,1028,0,0,0,NA,NA,8
23019414,1,1,59,2,1045,1,0,0,NA,NA,8
23019414,1,1,60,2,1005,0,0,0,NA,NA,8
23019414,1,1,61,2,1014,0,0,0,NA,NA,8
23019414,1,1,62,2,977,1,0,0,NA,NA,8
23019414,1,1,63,2,1010,1,0,0,NA,NA,8
23019414,1,1,64,2,993,1,0,0,NA,NA,8
23019414,1,1,65,2,985,1,0,0,NA,NA,8
23019414,1,1,66,2,1000,0,0,0,NA,NA,8
23019414,1,1,67,2,1026,0,0,0,NA,NA,8
23019414,1,1,68,1,979,0,1,0,NA,NA,8
23019414,1,1,69,1,1032,0,1,0,NA,NA,8
23019414,1,1,70,1,1056,0,0,0,NA,NA,8
23019414,1,1,71,2,1319,0,0,0,NA,NA,8
23019414,1,1,72,2,1030,0,0,0,NA,NA,8
23019414,1,1,73,2,1004,0,0,0,NA,NA,8
23019414,1,1,74,2,1082,1,0,0,NA,NA,8
23019414,1,1,75,2,1029,1,0,0,NA,NA,8
23019414,1,1,76,2,957,1,0,0,NA,NA,8
23019414,1,1,77,2,988,1,0,0,NA,NA,8
23019414,1,1,78,2,946,1,0,0,NA,NA,8
23019414,1,1,79,2,1012,1,0,0,NA,NA,8
23019414,1,1,80,2,994,1,0,0,NA,NA,8
23019414,1,1,81,2,916,1,0,0,NA,NA,8
23019414,1,1,82,2,1001,0,0,0,NA,NA,8
23019414,1,1,83,2,1006,0,0,0,NA,NA,8
23019414,1,1,84,2,1000,1,0,0,NA,NA,8
23019414,1,1,85,2,977,1,0,0,NA,NA,8
23019414,1,1,86,2,971,0,0,0,NA,NA,8
23019414,1,1,87,2,1071,1,0,0,NA,NA,8
23019414,1,1,88,2,1020,0,0,0,NA,NA,8
23019414,1,1,89,2,1024,1,0,0,NA,NA,8
23019414,1,1,90,2,985,1,0,0,NA,NA,8
23019414,1,1,91,2,994,0,0,0,NA,NA,8
23019414,1,1,92,2,1036,1,0,0,NA,NA,8
23019414,1,1,93,2,981,0,0,0,NA,NA,8
23019414,1,1,94,2,1001,1,0,0,NA,NA,8
23019414,1,1,95,2,1021,0,0,0,NA,NA,8
23019414,1,1,96,2,1017,1,0,0,NA,NA,8
23019414,1,1,97,2,963,1,0,0,NA,NA,8
23019414,1,1,98,2,1007,0,0,0,NA,NA,8
23019414,1,1,99,2,945,1,0,0,NA,NA,8
23019414,1,1,100,2,981,0,0,0,NA,NA,8
23019414,1,1,101,2,1023,0,0,0,NA,NA,8
23019414,1,1,102,2,895,0,0,1,L,1,8
23019414,1,1,103,1,1192,1,1,0,NA,NA,8
23019414,1,1,104,1,1009,1,1,0,NA,NA,8
23019414,1,1,105,1,1044,1,1,0,NA,NA,8
23019414,1,1,106,1,1028,0,1,0,NA,NA,8
23019414,1,1,107,1,1008,0,1,0,NA,NA,8
23019414,1,1,108,1,1005,1,0,0,NA,NA,8
23019414,1,1,109,1,972,0,0,0,NA,NA,8
23019414,1,1,110,1,1000,1,1,0,NA,NA,8
23019414,1,1,111,1,976,0,1,0,NA,NA,8
23019414,1,1,112,2,1008,0,0,0,NA,NA,8
23019414,1,1,113,1,973,0,0,0,NA,NA,8
23019414,1,1,114,1,1025,1,1,0,NA,NA,8
23019414,1,1,115,1,1032,1,1,0,NA,NA,8
23019414,1,1,116,1,1028,1,1,0,NA,NA,8
23019414,1,1,117,1,969,1,1,0,NA,NA,8
23019414,1,1,118,1,958,1,1,0,NA,NA,8
23019414,1,1,119,1,945,1,1,0,NA,NA,8
23019414,1,1,120,1,1025,1,1,0,NA,NA,8
23019414,1,1,121,1,985,1,1,0,NA,NA,8
23019414,1,1,122,1,994,1,0,0,NA,NA,8
23019414,1,1,123,1,1049,1,1,0,NA,NA,8
23019414,1,1,124,1,1059,1,0,0,NA,NA,8
23019414,1,1,125,1,1002,1,1,0,NA,NA,8
23019414,1,1,126,1,984,1,1,0,NA,NA,8
23019414,1,1,127,1,1038,0,1,0,NA,NA,8
23019414,1,1,128,1,901,0,0,0,NA,NA,8
23019414,1,1,129,1,961,1,0,0,NA,NA,8
23019414,1,1,130,1,975,0,1,0,NA,NA,8
23019414,1,1,131,2,933,0,0,0,NA,NA,8
23019414,1,1,132,2,969,0,0,0,NA,NA,8
23019414,1,1,133,1,930,0,1,0,NA,NA,8
23019414,1,1,134,1,952,0,0,0,NA,NA,8
23019414,1,1,135,2,881,0,0,0,NA,NA,8
23019414,1,1,136,2,963,0,0,0,NA,NA,8
23019414,1,1,137,2,908,0,0,0,NA,NA,8
23019414,1,1,138,1,1008,0,1,0,NA,NA,8
23019414,1,1,139,1,1007,1,0,0,NA,NA,8
23019414,1,1,140,1,1027,0,0,0,NA,NA,8
23019414,1,1,141,1,1007,0,1,0,NA,NA,8
23019414,1,1,142,1,1001,1,1,0,NA,NA,8
23019414,1,1,143,1,1032,0,0,0,NA,NA,8
23019414,1,1,144,1,983,0,0,0,NA,NA,8
23019414,1,1,145,1,979,0,1,0,NA,NA,8
23019414,1,1,146,2,1012,0,0,0,NA,NA,8
23019414,1,1,147,2,995,0,0,0,NA,NA,8
23019414,1,1,148,2,962,0,0,0,NA,NA,8
23019414,1,1,149,2,857,0,0,0,NA,NA,8
23019414,1,1,150,2,1087,0,0,0,NA,NA,8
23019414,1,1,151,1,859,1,0,0,NA,NA,8
23019414,1,1,152,1,979,0,0,0,NA,NA,8
23019414,1,1,153,1,979,0,1,0,NA,NA,8
23019414,1,1,154,1,1016,0,1,0,NA,NA,8
23019414,1,1,155,1,1028,1,0,0,NA,NA,8
23019414,1,1,156,1,924,0,0,0,NA,NA,8
23019414,1,1,157,1,973,0,1,0,NA,NA,8
23019414,1,1,158,1,1034,1,0,0,NA,NA,8
23019414,1,1,159,1,989,0,0,0,NA,NA,8
23019414,1,1,160,1,1000,1,0,0,NA,NA,8
23019414,1,1,161,1,961,0,0,0,NA,NA,8
23019414,1,1,162,1,980,0,0,0,NA,NA,8
23019414,1,1,163,1,1024,0,0,0,NA,NA,8
23019414,1,1,164,2,1005,0,0,0,NA,NA,8
23019414,1,1,165,2,998,1,0,0,NA,NA,8
23019414,1,1,166,2,927,0,0,0,NA,NA,8
23019414,1,1,167,2,993,0,0,0,NA,NA,8
23019414,1,1,168,2,1009,0,0,0,NA,NA,8
23019414,1,1,169,2,994,0,0,0,NA,NA,8
23019414,1,1,170,1,950,0,0,0,NA,NA,8
23019414,1,1,171,1,1049,1,1,0,NA,NA,8
23019414,1,1,172,1,974,1,1,0,NA,NA,8
23019414,1,1,173,1,1012,0,1,0,NA,NA,8
23019414,1,1,174,1,1022,1,0,0,NA,NA,8
23019414,1,1,175,1,1020,1,0,0,NA,NA,8
23019414,1,1,176,1,950,0,1,0,NA,NA,8
23019414,1,1,177,1,1048,0,0,0,NA,NA,8
23019414,1,1,178,1,1002,0,0,0,NA,NA,8
23019414,1,1,179,1,1006,0,1,0,NA,NA,8
23019414,1,1,180,2,1063,0,0,0,NA,NA,8
23019414,1,1,181,2,1072,1,0,0,NA,NA,8
23019414,1,1,182,2,916,0,0,0,NA,NA,8
23019414,1,1,183,2,971,0,0,0,NA,NA,8
23019414,1,1,184,2,983,1,0,0,NA,NA,8
23019414,1,1,185,2,1038,1,0,0,NA,NA,8
23019414,1,1,186,2,1037,1,0,0,NA,NA,8
23019414,1,1,187,2,1026,0,0,0,NA,NA,8
23019414,1,1,188,2,1022,1,0,0,NA,NA,8
23019414,1,1,189,2,933,0,0,0,NA,NA,8
23019414,1,1,190,2,1173,1,0,0,NA,NA,8
23019414,1,1,191,2,1035,1,0,0,NA,NA,8
23019414,1,1,192,2,1018,1,0,0,NA,NA,8
23019414,1,1,193,2,1045,1,0,0,NA,NA,8
23019414,1,1,194,2,1373,1,0,0,NA,NA,8
23019414,1,1,195,2,956,1,0,0,NA,NA,8
23019414,1,1,196,2,937,0,0,0,NA,NA,8
23019414,1,1,197,2,975,0,0,0,NA,NA,8
23019414,1,1,198,1,1098,1,1,0,NA,NA,8
23019414,1,1,199,1,975,1,1,0,NA,NA,8
23019414,1,1,200,1,1030,1,0,0,NA,NA,8
23019414,1,1,201,1,1015,0,0,3,R,3,8
23019414,2,3,1,1,1826,0,0,0,NA,NA,18
23019414,2,3,2,2,1259,0,0,0,NA,NA,18
23019414,2,3,3,2,1074,0,0,0,NA,NA,18
23019414,2,3,4,1,1051,1,0,0,NA,NA,18
23019414,2,3,5,1,957,1,0,0,NA,NA,18
23019414,2,3,6,1,1027,1,0,0,NA,NA,18
23019414,2,3,7,1,983,0,0,0,NA,NA,18
23019414,2,3,8,1,987,1,0,0,NA,NA,18
23019414,2,3,9,1,991,1,0,0,NA,NA,18
23019414,2,3,10,1,986,1,0,0,NA,NA,18
23019414,2,3,11,1,1089,1,0,0,NA,NA,18
23019414,2,3,12,1,1036,1,0,0,NA,NA,18
23019414,2,3,13,1,986,1,0,0,NA,NA,18
23019414,2,3,14,1,1047,1,0,0,NA,NA,18
23019414,2,3,15,1,945,1,0,0,NA,NA,18
23019414,2,3,16,1,1013,1,0,0,NA,NA,18
23019414,2,3,17,1,1034,0,0,0,NA,NA,18
23019414,2,3,18,1,1385,0,1,0,NA,NA,18
23019414,2,3,19,2,1074,0,0,0,NA,NA,18
23019414,2,3,20,2,1083,0,0,0,NA,NA,18
23019414,2,3,21,2,984,0,0,0,NA,NA,18
23019414,2,3,22,1,1093,1,0,0,NA,NA,18
23019414,2,3,23,1,1002,1,0,0,NA,NA,18
23019414,2,3,24,1,1044,1,0,0,NA,NA,18
23019414,2,3,25,1,1035,0,1,0,NA,NA,18
23019414,2,3,26,1,999,0,1,0,NA,NA,18
23019414,2,3,27,2,1061,1,0,0,NA,NA,18
23019414,2,3,28,2,988,0,0,0,NA,NA,18
23019414,2,3,29,2,983,0,0,0,NA,NA,18
23019414,2,3,30,2,954,0,0,1,R,1,18
23019414,2,3,31,2,1251,0,0,0,NA,NA,18
23019414,2,3,32,1,1026,0,0,0,NA,NA,18
23019414,2,3,33,1,1007,1,1,0,NA,NA,18
23019414,2,3,34,1,1027,0,1,0,NA,NA,18
23019414,2,3,35,2,1072,0,0,0,NA,NA,18
23019414,2,3,36,2,1050,0,0,0,NA,NA,18
23019414,2,3,37,2,1040,0,0,0,NA,NA,18
23019414,2,3,38,1,1086,1,0,0,NA,NA,18
23019414,2,3,39,1,1027,0,0,0,NA,NA,18
23019414,2,3,40,1,957,0,0,0,NA,NA,18
23019414,2,3,41,1,914,0,0,0,NA,NA,18
23019414,2,3,42,2,981,0,0,0,NA,NA,18
23019414,2,3,43,2,995,0,0,0,NA,NA,18
23019414,2,3,44,2,991,0,0,0,NA,NA,18
23019414,2,3,45,2,1012,0,0,0,NA,NA,18
23019414,2,3,46,2,1040,0,0,0,NA,NA,18
23019414,2,3,47,2,1020,1,0,0,NA,NA,18
23019414,2,3,48,2,1029,0,0,0,NA,NA,18
23019414,2,3,49,1,1029,1,0,0,NA,NA,18
23019414,2,3,50,1,1010,0,0,0,NA,NA,18
23019414,2,3,51,1,960,0,0,0,NA,NA,18
23019414,2,3,52,2,1010,1,0,0,NA,NA,18
23019414,2,3,53,2,1030,0,0,0,NA,NA,18
23019414,2,3,54,2,1022,1,0,0,NA,NA,18
23019414,2,3,55,2,1050,0,0,0,NA,NA,18
23019414,2,3,56,2,1041,1,0,0,NA,NA,18
23019414,2,3,57,2,977,0,0,0,NA,NA,18
23019414,2,3,58,2,1121,0,0,0,NA,NA,18
23019414,2,3,59,1,1108,1,1,0,NA,NA,18
23019414,2,3,60,1,1018,1,1,0,NA,NA,18
23019414,2,3,61,1,1067,0,1,0,NA,NA,18
23019414,2,3,62,1,988,1,1,0,NA,NA,18
23019414,2,3,63,1,1393,1,1,0,NA,NA,18
23019414,2,3,64,1,1075,0,1,0,NA,NA,18
23019414,2,3,65,1,1002,0,1,0,NA,NA,18
23019414,2,3,66,2,1099,0,0,0,NA,NA,18
23019414,2,3,67,1,946,0,0,0,NA,NA,18
23019414,2,3,68,2,1067,1,0,0,NA,NA,18
23019414,2,3,69,2,1009,0,0,0,NA,NA,18
23019414,2,3,70,1,988,1,1,0,NA,NA,18
23019414,2,3,71,1,1204,0,0,0,NA,NA,18
23019414,2,3,72,1,1055,1,1,0,NA,NA,18
23019414,2,3,73,1,1015,1,1,0,NA,NA,18
23019414,2,3,74,1,1023,0,0,0,NA,NA,18
23019414,2,3,75,1,1189,0,1,0,NA,NA,18
23019414,2,3,76,2,1041,1,0,0,NA,NA,18
23019414,2,3,77,2,1083,0,0,0,NA,NA,18
23019414,2,3,78,2,1009,1,0,0,NA,NA,18
23019414,2,3,79,2,995,1,0,0,NA,NA,18
23019414,2,3,80,2,1001,0,0,0,NA,NA,18
23019414,2,3,81,2,1132,0,0,0,NA,NA,18
23019414,2,3,82,1,966,1,1,0,NA,NA,18
23019414,2,3,83,1,1045,1,1,0,NA,NA,18
23019414,2,3,84,1,1024,1,1,0,NA,NA,18
23019414,2,3,85,1,1077,1,0,0,NA,NA,18
23019414,2,3,86,1,987,1,1,0,NA,NA,18
23019414,2,3,88,1,986,0,0,0,NA,NA,18
23019414,2,3,89,1,970,1,0,0,NA,NA,18
23019414,2,3,90,1,1068,1,0,0,NA,NA,18
23019414,2,3,91,1,935,1,0,0,NA,NA,18
23019414,2,3,92,1,898,1,0,0,NA,NA,18
23019414,2,3,93,1,907,1,0,0,NA,NA,18
23019414,2,3,94,1,948,1,0,0,NA,NA,18
23019414,2,3,95,1,985,0,0,0,NA,NA,18
23019414,2,3,96,1,974,0,1,0,NA,NA,18
23019414,2,3,97,2,1019,0,0,0,NA,NA,18
23019414,2,3,98,2,955,0,0,0,NA,NA,18
23019414,2,3,99,1,1062,1,0,0,NA,NA,18
23019414,2,3,100,1,1107,0,0,0,NA,NA,18
23019414,2,3,101,1,989,0,0,0,NA,NA,18
23019414,2,3,102,1,1028,0,0,0,NA,NA,18
23019414,2,3,103,1,981,1,0,0,NA,NA,18
23019414,2,3,104,1,1002,0,0,2,L,2,18
23019414,2,3,105,2,1140,0,0,0,NA,NA,18
23019414,2,3,106,2,1216,1,0,0,NA,NA,18
23019414,2,3,107,2,1011,0,0,0,NA,NA,18
23019414,2,3,108,1,1041,0,1,0,NA,NA,18
23019414,2,3,109,1,1196,0,0,0,NA,NA,18
23019414,2,3,110,2,1042,0,0,0,NA,NA,18
23019414,2,3,111,2,1046,0,0,0,NA,NA,18
23019414,2,3,112,1,972,1,0,0,NA,NA,18
23019414,2,3,113,1,1042,0,0,0,NA,NA,18
23019414,2,3,114,1,959,1,0,0,NA,NA,18
23019414,2,3,115,1,1030,0,0,0,NA,NA,18
23019414,2,3,116,1,992,0,1,0,NA,NA,18
23019414,2,3,117,1,1004,1,0,0,NA,NA,18
23019414,2,3,118,1,943,0,0,0,NA,NA,18
23019414,2,3,119,1,1021,1,1,0,NA,NA,18
23019414,2,3,120,1,1005,0,0,0,NA,NA,18
23019414,2,3,121,1,1019,1,1,0,NA,NA,18
23019414,2,3,122,1,1024,1,0,0,NA,NA,18
23019414,2,3,123,1,1001,0,0,0,NA,NA,18
23019414,2,3,124,1,1417,1,1,0,NA,NA,18
23019414,2,3,125,1,1128,0,1,0,NA,NA,18
23019414,2,3,126,2,1136,0,0,0,NA,NA,18
23019414,2,3,127,1,1030,1,0,0,NA,NA,18
23019414,2,3,128,1,1009,0,0,0,NA,NA,18
23019414,2,3,129,1,1026,1,1,0,NA,NA,18
23019414,2,3,130,1,1020,0,0,0,NA,NA,18
23019414,2,3,131,1,1078,0,0,0,NA,NA,18
23019414,2,3,132,2,1019,0,0,0,NA,NA,18
23019414,2,3,133,2,971,0,0,0,NA,NA,18
23019414,2,3,134,1,963,1,0,0,NA,NA,18
23019414,2,3,135,1,1014,1,0,0,NA,NA,18
23019414,2,3,136,1,987,0,1,0,NA,NA,18
23019414,2,3,137,1,1082,0,0,0,NA,NA,18
23019414,2,3,138,1,997,1,0,0,NA,NA,18
23019414,2,3,139,1,1005,1,0,0,NA,NA,18
23019414,2,3,140,1,971,0,0,0,NA,NA,18
23019414,2,3,141,1,960,0,1,0,NA,NA,18
23019414,2,3,142,1,986,0,0,0,NA,NA,18
23019414,2,3,143,1,1006,0,0,0,NA,NA,18
23019414,2,3,144,1,1229,0,1,0,NA,NA,18
23019414,2,3,145,2,1084,1,0,0,NA,NA,18
23019414,2,3,146,2,947,1,0,0,NA,NA,18
23019414,2,3,147,2,1011,1,0,0,NA,NA,18
23019414,2,3,148,2,984,0,0,0,NA,NA,18
23019414,2,3,149,2,1017,1,0,0,NA,NA,18
23019414,2,3,150,2,1003,0,0,0,NA,NA,18
23019414,2,3,151,2,1029,1,0,0,NA,NA,18
23019414,2,3,152,2,1020,0,0,0,NA,NA,18
23019414,2,3,153,2,1007,0,0,0,NA,NA,18
23019414,2,3,154,1,1014,0,1,0,NA,NA,18
23019414,2,3,155,1,1044,0,1,0,NA,NA,18
23019414,2,3,156,1,1040,1,1,0,NA,NA,18
23019414,2,3,157,1,1064,1,1,0,NA,NA,18
23019414,2,3,158,1,1037,1,1,0,NA,NA,18
23019414,2,3,159,1,1044,1,0,0,NA,NA,18
23019414,2,3,160,1,1282,1,0,0,NA,NA,18
23019414,2,3,161,1,1521,1,0,0,NA,NA,18
23019414,2,3,162,1,941,1,0,0,NA,NA,18
23019414,2,3,163,1,986,1,1,0,NA,NA,18
23019414,2,3,164,1,1107,0,1,0,NA,NA,18
23019414,2,3,165,1,613,0,0,0,NA,NA,18
23019414,2,3,166,1,1086,1,0,0,NA,NA,18
23019414,2,3,167,1,1005,0,1,0,NA,NA,18
23019414,2,3,168,1,1023,1,0,0,NA,NA,18
23019414,2,3,169,1,947,0,1,0,NA,NA,18
23019414,2,3,170,1,1010,0,0,0,NA,NA,18
23019414,2,3,171,1,969,1,1,0,NA,NA,18
23019414,2,3,172,1,979,0,1,0,NA,NA,18
23019414,2,3,173,1,974,0,1,0,NA,NA,18
23019414,2,3,174,1,986,1,1,0,NA,NA,18
23019414,2,3,175,1,976,0,1,0,NA,NA,18
23019414,2,3,176,1,1115,0,0,0,NA,NA,18
23019414,2,3,177,1,1324,1,1,0,NA,NA,18
23019414,2,3,178,1,1244,0,1,0,NA,NA,18
23019414,2,3,179,1,1127,1,0,0,NA,NA,18
23019414,2,3,180,1,1096,0,0,0,NA,NA,18
23019414,2,3,182,1,969,0,1,0,NA,NA,18
23019414,2,3,183,2,874,0,0,0,NA,NA,18
23019414,2,3,184,2,992,0,0,0,NA,NA,18
23019414,2,3,185,1,1002,0,0,0,NA,NA,18
23019414,2,3,186,1,998,1,1,0,NA,NA,18
23019414,2,3,187,1,1011,0,0,0,NA,NA,18
23019414,2,3,188,1,909,0,1,0,NA,NA,18
23019414,2,3,189,1,940,1,0,0,NA,NA,18
23019414,2,3,190,1,924,0,1,0,NA,NA,18
23019414,2,3,192,1,980,0,1,0,NA,NA,18
23019414,2,3,193,1,988,1,0,0,NA,NA,18
23019414,2,3,194,1,978,0,1,0,NA,NA,18
23019414,2,3,195,1,1012,1,0,0,NA,NA,18
23019414,2,3,196,1,1003,1,1,0,NA,NA,18
23019414,2,3,197,1,983,0,1,0,NA,NA,18
23019414,2,3,198,1,1039,1,1,0,NA,NA,18
23019414,2,3,199,1,981,1,1,0,NA,NA,18
23019414,2,3,200,1,995,1,1,0,NA,NA,18
23019414,2,3,201,1,991,0,0,2,L,2,18
23873980,1,1,1,1,1622,1,0,0,NA,NA,30
23873980,1,1,2,1,1171,0,0,0,NA,NA,30
23873980,1,1,3,1,1343,0,1,0,NA,NA,30
23873980,1,1,4,2,1384,0,0,0,NA,NA,30
23873980,1,1,5,1,1361,1,0,0,NA,NA,30
23873980,1,1,6,1,1226,1,0,0,NA,NA,30
23873980,1,1,7,1,1189,1,0,0,NA,NA,30
23873980,1,1,8,1,1206,1,0,0,NA,NA,30
23873980,1,1,9,1,1191,0,0,0,NA,NA,30
23873980,1,1,10,1,1343,1,0,0,NA,NA,30
23873980,1,1,11,1,1219,1,0,0,NA,NA,30
23873980,1,1,12,1,1100,1,0,0,NA,NA,30
23873980,1,1,13,1,1094,1,0,0,NA,NA,30
23873980,1,1,14,1,1066,1,0,0,NA,NA,30
23873980,1,1,15,1,1041,1,0,0,NA,NA,30
23873980,1,1,16,1,1019,1,0,0,NA,NA,30
23873980,1,1,17,1,1103,0,0,0,NA,NA,30
23873980,1,1,18,1,1274,1,0,0,NA,NA,30
23873980,1,1,19,1,1089,0,0,0,NA,NA,30
23873980,1,1,20,1,1193,1,1,0,NA,NA,30
23873980,1,1,21,1,1133,1,0,0,NA,NA,30
23873980,1,1,22,1,1104,1,0,0,NA,NA,30
23873980,1,1,24,1,1021,0,0,0,NA,NA,30
23873980,1,1,25,1,1083,0,0,0,NA,NA,30
23873980,1,1,26,2,1234,1,0,0,NA,NA,30
23873980,1,1,27,2,1031,1,0,0,NA,NA,30
23873980,1,1,28,2,1122,0,0,0,NA,NA,30
23873980,1,1,29,2,1052,1,0,0,NA,NA,30
23873980,1,1,30,2,1211,1,0,0,NA,NA,30
23873980,1,1,31,2,1009,0,0,0,NA,NA,30
23873980,1,1,32,2,1260,0,0,0,NA,NA,30
23873980,1,1,33,1,1004,1,0,0,NA,NA,30
23873980,1,1,34,1,1073,0,1,0,NA,NA,30
23873980,1,1,35,1,1277,0,0,0,NA,NA,30
23873980,1,1,36,2,1221,0,0,0,NA,NA,30
23873980,1,1,37,1,1119,0,1,0,NA,NA,30
23873980,1,1,38,1,1196,1,1,0,NA,NA,30
23873980,1,1,39,1,1756,0,0,0,NA,NA,30
23873980,1,1,40,1,1084,0,0,0,NA,NA,30
23873980,1,1,41,2,1259,1,0,0,NA,NA,30
23873980,1,1,42,2,1094,1,0,0,NA,NA,30
23873980,1,1,43,2,1101,0,0,0,NA,NA,30
23873980,1,1,44,1,1075,0,0,0,NA,NA,30
23873980,1,1,45,1,1076,0,0,1,L,1,30
23873980,1,1,46,1,1586,1,1,0,NA,NA,30
23873980,1,1,47,1,1202,1,1,0,NA,NA,30
23873980,1,1,48,1,977,0,0,0,NA,NA,30
23873980,1,1,49,1,980,1,0,0,NA,NA,30
23873980,1,1,50,1,1298,0,0,0,NA,NA,30
23873980,1,1,51,1,1112,1,1,0,NA,NA,30
23873980,1,1,52,1,1073,1,0,0,NA,NA,30
23873980,1,1,53,1,1037,1,0,0,NA,NA,30
23873980,1,1,54,1,1073,1,0,0,NA,NA,30
23873980,1,1,55,1,1051,1,0,0,NA,NA,30
23873980,1,1,56,1,1115,1,0,0,NA,NA,30
23873980,1,1,57,1,1074,0,0,0,NA,NA,30
23873980,1,1,58,1,1087,0,1,0,NA,NA,30
23873980,1,1,59,1,1008,0,0,0,NA,NA,30
23873980,1,1,60,2,1128,1,0,0,NA,NA,30
23873980,1,1,61,2,1071,0,0,0,NA,NA,30
23873980,1,1,62,2,1030,0,0,0,NA,NA,30
23873980,1,1,63,1,1094,0,1,0,NA,NA,30
23873980,1,1,64,1,1522,1,1,0,NA,NA,30
23873980,1,1,65,2,1074,1,0,0,NA,NA,30
23873980,1,1,66,2,1049,1,0,0,NA,NA,30
23873980,1,1,67,2,1119,1,0,0,NA,NA,30
23873980,1,1,68,2,1106,1,0,0,NA,NA,30
23873980,1,1,69,2,1077,1,0,0,NA,NA,30
23873980,1,1,70,2,1029,1,0,0,NA,NA,30
23873980,1,1,71,2,1077,1,0,0,NA,NA,30
23873980,1,1,72,2,1322,1,0,0,NA,NA,30
23873980,1,1,73,2,1073,0,0,0,NA,NA,30
23873980,1,1,74,1,1079,1,1,0,NA,NA,30
23873980,1,1,75,2,1270,1,0,0,NA,NA,30
23873980,1,1,76,2,1080,0,0,0,NA,NA,30
23873980,1,1,77,1,1007,0,0,0,NA,NA,30
23873980,1,1,78,1,1245,0,1,0,NA,NA,30
23873980,1,1,79,1,1501,1,1,0,NA,NA,30
23873980,1,1,80,2,1891,0,0,0,NA,NA,30
23873980,1,1,81,2,1221,1,0,0,NA,NA,30
23873980,1,1,82,2,1152,1,0,0,NA,NA,30
23873980,1,1,83,2,1041,0,0,0,NA,NA,30
23873980,1,1,84,2,1094,1,0,0,NA,NA,30
23873980,1,1,85,2,1156,0,0,0,NA,NA,30
23873980,1,1,86,1,1106,0,1,0,NA,NA,30
23873980,1,1,87,2,1039,1,0,0,NA,NA,30
23873980,1,1,88,2,1208,0,0,0,NA,NA,30
23873980,1,1,89,2,1126,0,0,0,NA,NA,30
23873980,1,1,90,1,1121,1,1,0,NA,NA,30
23873980,1,1,91,1,1040,0,1,0,NA,NA,30
23873980,1,1,92,2,1115,1,0,0,NA,NA,30
23873980,1,1,93,2,1094,1,0,0,NA,NA,30
23873980,1,1,94,2,1112,0,0,0,NA,NA,30
23873980,1,1,95,2,1164,1,0,0,NA,NA,30
23873980,1,1,96,2,1282,0,0,0,NA,NA,30
23873980,1,1,97,2,2181,0,0,0,NA,NA,30
23873980,1,1,98,2,1428,0,0,0,NA,NA,30
23873980,1,1,99,1,1628,0,1,0,NA,NA,30
23873980,1,1,100,2,1083,0,0,0,NA,NA,30
23873980,1,1,101,1,1066,0,0,0,NA,NA,30
23873980,1,1,102,2,1392,0,0,0,NA,NA,30
23873980,1,1,103,1,1193,0,0,0,NA,NA,30
23873980,1,1,104,2,1172,0,0,0,NA,NA,30
23873980,1,1,105,1,1290,1,0,0,NA,NA,30
23873980,1,1,106,1,1060,1,0,0,NA,NA,30
23873980,1,1,107,1,1127,1,1,0,NA,NA,30
23873980,1,1,108,1,1125,0,1,0,NA,NA,30
23873980,1,1,109,2,1084,1,0,0,NA,NA,30
23873980,1,1,110,2,1090,0,0,0,NA,NA,30
23873980,1,1,111,2,1152,0,0,0,NA,NA,30
23873980,1,1,112,1,1175,0,0,0,NA,NA,30
23873980,1,1,113,2,1117,0,0,0,NA,NA,30
23873980,1,1,114,1,1157,1,0,0,NA,NA,30
23873980,1,1,115,1,1366,1,1,0,NA,NA,30
23873980,1,1,116,1,1082,1,1,0,NA,NA,30
23873980,1,1,117,2,1222,0,0,0,NA,NA,30
23873980,1,1,118,2,1079,0,0,0,NA,NA,30
23873980,1,1,119,2,1344,0,0,0,NA,NA,30
23873980,1,1,120,1,1175,0,0,0,NA,NA,30
23873980,1,1,121,2,1318,0,0,0,NA,NA,30
23873980,1,1,122,1,1053,1,0,0,NA,NA,30
23873980,1,1,123,1,1154,0,1,0,NA,NA,30
23873980,1,1,124,1,1237,0,1,0,NA,NA,30
23873980,1,1,125,2,1124,0,0,0,NA,NA,30
23873980,1,1,126,2,1195,0,0,0,NA,NA,30
23873980,1,1,127,2,1142,1,0,0,NA,NA,30
23873980,1,1,128,2,1153,0,0,0,NA,NA,30
23873980,1,1,129,2,1277,0,0,0,NA,NA,30
23873980,1,1,130,2,1298,0,0,1,L,1,30
23873980,1,1,131,2,1405,0,0,0,NA,NA,30
23873980,1,1,132,2,1336,1,0,0,NA,NA,30
23873980,1,1,133,2,1296,0,0,0,NA,NA,30
23873980,1,1,134,2,1413,0,0,0,NA,NA,30
23873980,1,1,135,2,1244,0,0,0,NA,NA,30
23873980,1,1,136,2,1144,0,0,0,NA,NA,30
23873980,1,1,137,1,1164,0,1,0,NA,NA,30
23873980,1,1,138,2,1140,0,0,0,NA,NA,30
23873980,1,1,139,2,1146,0,0,0,NA,NA,30
23873980,1,1,140,1,1111,0,1,0,NA,NA,30
23873980,1,1,141,2,1137,1,0,0,NA,NA,30
23873980,1,1,142,2,1181,1,0,0,NA,NA,30
23873980,1,1,143,2,1277,0,0,0,NA,NA,30
23873980,1,1,144,2,1144,0,0,0,NA,NA,30
23873980,1,1,145,2,1757,0,0,0,NA,NA,30
23873980,1,1,146,2,1350,0,0,0,NA,NA,30
23873980,1,1,147,1,1211,1,1,0,NA,NA,30
23873980,1,1,148,1,1370,0,1,0,NA,NA,30
23873980,1,1,149,2,1125,0,0,0,NA,NA,30
23873980,1,1,150,2,1153,0,0,0,NA,NA,30
23873980,1,1,151,2,1115,0,0,0,NA,NA,30
23873980,1,1,152,1,1106,0,0,0,NA,NA,30
23873980,1,1,153,1,1274,0,1,0,NA,NA,30
23873980,1,1,154,2,1258,1,0,0,NA,NA,30
23873980,1,1,155,2,1129,0,0,0,NA,NA,30
23873980,1,1,156,2,2142,0,0,0,NA,NA,30
23873980,1,1,157,1,1095,1,0,0,NA,NA,30
23873980,1,1,158,1,1154,0,0,0,NA,NA,30
23873980,1,1,159,2,2439,0,0,0,NA,NA,30
23873980,1,1,160,1,1466,0,0,0,NA,NA,30
23873980,1,1,161,1,1169,1,0,0,NA,NA,30
23873980,1,1,162,1,1067,0,0,0,NA,NA,30
23873980,1,1,163,1,1222,1,0,0,NA,NA,30
23873980,1,1,164,1,1251,1,0,0,NA,NA,30
23873980,1,1,165,1,1084,0,0,0,NA,NA,30
23873980,1,1,166,2,1987,0,0,0,NA,NA,30
23873980,1,1,167,1,1101,1,0,0,NA,NA,30
23873980,1,1,168,1,1161,0,0,0,NA,NA,30
23873980,1,1,169,1,1114,1,0,0,NA,NA,30
23873980,1,1,170,1,1112,0,0,0,NA,NA,30
23873980,1,1,171,1,1185,0,1,0,NA,NA,30
23873980,1,1,172,1,1204,0,0,0,NA,NA,30
23873980,1,1,173,2,1060,0,0,0,NA,NA,30
23873980,1,1,174,2,1092,0,0,0,NA,NA,30
23873980,1,1,175,1,1661,0,0,0,NA,NA,30
23873980,1,1,176,2,1138,1,0,0,NA,NA,30
23873980,1,1,177,2,1173,0,0,0,NA,NA,30
23873980,1,1,178,2,1069,0,0,0,NA,NA,30
23873980,1,1,179,2,1104,1,0,0,NA,NA,30
23873980,1,1,180,2,1126,0,0,0,NA,NA,30
23873980,1,1,181,2,1069,1,0,0,NA,NA,30
23873980,1,1,182,2,1083,1,0,0,NA,NA,30
23873980,1,1,183,2,1169,1,0,0,NA,NA,30
23873980,1,1,184,2,1214,0,0,0,NA,NA,30
23873980,1,1,185,2,1165,1,0,0,NA,NA,30
23873980,1,1,186,2,1110,1,0,0,NA,NA,30
23873980,1,1,187,2,1095,0,0,0,NA,NA,30
23873980,1,1,188,2,1154,0,0,0,NA,NA,30
23873980,1,1,189,2,1144,1,0,0,NA,NA,30
23873980,1,1,190,2,1100,1,0,0,NA,NA,30
23873980,1,1,191,2,1104,0,0,0,NA,NA,30
23873980,1,1,192,2,1150,1,0,0,NA,NA,30
23873980,1,1,193,2,1142,0,0,0,NA,NA,30
23873980,1,1,194,2,1233,1,0,0,NA,NA,30
23873980,1,1,195,2,1044,1,0,0,NA,NA,30
23873980,1,1,196,2,1077,0,0,0,NA,NA,30
23873980,1,1,197,2,1080,1,0,0,NA,NA,30
23873980,1,1,198,2,1075,0,0,0,NA,NA,30
23873980,1,1,199,2,1133,0,0,0,NA,NA,30
23873980,1,1,200,2,1136,0,0,0,NA,NA,30
23873980,1,1,201,2,1180,0,0,3,R,3,30
23873980,2,3,1,2,1585,0,0,0,NA,NA,31
23873980,2,3,2,1,1355,0,0,0,NA,NA,31
23873980,2,3,3,2,1086,1,0,0,NA,NA,31
23873980,2,3,4,2,1138,0,0,0,NA,NA,31
23873980,2,3,5,2,1130,0,0,0,NA,NA,31
23873980,2,3,6,1,983,1,1,0,NA,NA,31
23873980,2,3,7,1,1167,1,0,0,NA,NA,31
23873980,2,3,8,1,1068,1,0,0,NA,NA,31
23873980,2,3,9,1,1080,1,0,0,NA,NA,31
23873980,2,3,10,1,1077,1,1,0,NA,NA,31
23873980,2,3,11,1,1072,1,0,0,NA,NA,31
23873980,2,3,12,1,1144,0,0,0,NA,NA,31
23873980,2,3,13,1,1130,0,0,0,NA,NA,31
23873980,2,3,14,2,1187,1,0,0,NA,NA,31
23873980,2,3,15,2,1006,0,0,0,NA,NA,31
23873980,2,3,16,1,1022,0,0,0,NA,NA,31
23873980,2,3,17,2,1188,0,0,0,NA,NA,31
23873980,2,3,18,1,1075,0,0,0,NA,NA,31
23873980,2,3,19,1,1035,0,0,0,NA,NA,31
23873980,2,3,20,1,1267,0,1,0,NA,NA,31
23873980,2,3,21,1,1827,0,0,0,NA,NA,31
23873980,2,3,22,2,1079,1,0,0,NA,NA,31
23873980,2,3,23,2,1039,0,0,0,NA,NA,31
23873980,2,3,24,2,1095,0,0,0,NA,NA,31
23873980,2,3,25,2,1266,0,0,0,NA,NA,31
23873980,2,3,26,1,1062,0,0,0,NA,NA,31
23873980,2,3,27,1,1440,0,0,0,NA,NA,31
23873980,2,3,28,2,986,0,0,0,NA,NA,31
23873980,2,3,29,2,1199,0,0,0,NA,NA,31
23873980,2,3,30,1,1078,0,0,0,NA,NA,31
23873980,2,3,31,1,1344,0,1,0,NA,NA,31
23873980,2,3,32,1,1380,0,0,1,L,1,31
23873980,2,3,33,1,1279,1,1,0,NA,NA,31
23873980,2,3,34,1,1082,0,1,0,NA,NA,31
23873980,2,3,35,2,1058,0,0,0,NA,NA,31
23873980,2,3,36,2,1742,0,0,0,NA,NA,31
23873980,2,3,37,1,1178,0,0,0,NA,NA,31
23873980,2,3,38,2,1121,0,0,0,NA,NA,31
23873980,2,3,39,2,1294,0,0,0,NA,NA,31
23873980,2,3,40,1,1037,1,0,0,NA,NA,31
23873980,2,3,41,1,1055,0,0,0,NA,NA,31
23873980,2,3,42,1,1908,1,1,0,NA,NA,31
23873980,2,3,43,1,1485,1,0,0,NA,NA,31
23873980,2,3,44,2,1059,0,0,0,NA,NA,31
23873980,2,3,45,1,1063,0,0,0,NA,NA,31
23873980,2,3,46,1,1289,0,0,0,NA,NA,31
23873980,2,3,47,2,1011,0,0,0,NA,NA,31
23873980,2,3,48,1,1120,1,0,0,NA,NA,31
23873980,2,3,49,1,1112,1,0,0,NA,NA,31
23873980,2,3,50,1,1063,0,0,0,NA,NA,31
23873980,2,3,51,1,964,1,0,0,NA,NA,31
23873980,2,3,52,1,1023,1,1,0,NA,NA,31
23873980,2,3,53,1,1207,0,0,0,NA,NA,31
23873980,2,3,54,1,1206,1,1,0,NA,NA,31
23873980,2,3,55,1,1244,1,1,0,NA,NA,31
23873980,2,3,56,1,1136,0,0,0,NA,NA,31
23873980,2,3,57,1,1579,1,0,0,NA,NA,31
23873980,2,3,58,1,1029,0,1,0,NA,NA,31
23873980,2,3,59,2,2139,1,0,0,NA,NA,31
23873980,2,3,60,2,1006,0,0,0,NA,NA,31
23873980,2,3,61,1,1144,0,1,0,NA,NA,31
23873980,2,3,62,2,1019,0,0,0,NA,NA,31
23873980,2,3,63,1,1421,0,0,0,NA,NA,31
23873980,2,3,64,2,1280,0,0,0,NA,NA,31
23873980,2,3,65,1,1099,1,0,0,NA,NA,31
23873980,2,3,66,1,1031,1,1,0,NA,NA,31
23873980,2,3,67,1,1117,1,0,0,NA,NA,31
23873980,2,3,68,1,1275,1,1,0,NA,NA,31
23873980,2,3,69,1,1581,0,0,0,NA,NA,31
23873980,2,3,70,2,1027,1,0,0,NA,NA,31
23873980,2,3,71,2,1424,1,0,0,NA,NA,31
23873980,2,3,72,2,1092,0,0,0,NA,NA,31
23873980,2,3,73,2,1218,0,0,0,NA,NA,31
23873980,2,3,74,1,1044,1,0,0,NA,NA,31
23873980,2,3,75,1,1132,1,1,0,NA,NA,31
23873980,2,3,76,1,1481,1,0,0,NA,NA,31
23873980,2,3,77,1,1724,1,1,0,NA,NA,31
23873980,2,3,78,1,1084,1,1,0,NA,NA,31
23873980,2,3,79,1,1128,1,1,0,NA,NA,31
23873980,2,3,80,1,1115,1,0,0,NA,NA,31
23873980,2,3,81,1,1094,0,1,0,NA,NA,31
23873980,2,3,82,2,1097,0,0,0,NA,NA,31
23873980,2,3,83,2,1197,1,0,0,NA,NA,31
23873980,2,3,84,2,1181,0,0,0,NA,NA,31
23873980,2,3,85,2,1243,1,0,0,NA,NA,31
23873980,2,3,86,2,1082,0,0,0,NA,NA,31
23873980,2,3,87,1,1082,1,0,0,NA,NA,31
23873980,2,3,88,1,1170,1,0,0,NA,NA,31
23873980,2,3,89,1,1184,0,1,0,NA,NA,31
23873980,2,3,90,2,1447,0,0,0,NA,NA,31
23873980,2,3,91,2,1207,0,0,0,NA,NA,31
23873980,2,3,92,2,1236,1,0,0,NA,NA,31
23873980,2,3,93,2,1218,1,0,0,NA,NA,31
23873980,2,3,94,2,1170,0,0,0,NA,NA,31
23873980,2,3,95,2,1193,1,0,0,NA,NA,31
23873980,2,3,96,2,1266,0,0,0,NA,NA,31
23873980,2,3,97,2,1234,0,0,0,NA,NA,31
23873980,2,3,98,2,1187,0,0,0,NA,NA,31
23873980,2,3,99,1,1145,0,1,0,NA,NA,31
23873980,2,3,100,1,1116,1,0,0,NA,NA,31
23873980,2,3,101,1,1198,0,0,0,NA,NA,31
23873980,2,3,102,2,1109,1,0,0,NA,NA,31
23873980,2,3,103,2,1206,0,0,0,NA,NA,31
23873980,2,3,104,1,1969,1,0,0,NA,NA,31
23873980,2,3,105,1,1161,0,0,0,NA,NA,31
23873980,2,3,106,1,1232,0,0,0,NA,NA,31
23873980,2,3,107,2,1128,0,0,0,NA,NA,31
23873980,2,3,108,2,1229,0,0,0,NA,NA,31
23873980,2,3,109,1,1120,1,0,0,NA,NA,31
23873980,2,3,110,1,1029,1,0,0,NA,NA,31
23873980,2,3,111,1,1277,1,0,0,NA,NA,31
23873980,2,3,112,1,1105,0,1,0,NA,NA,31
23873980,2,3,113,1,1161,1,0,0,NA,NA,31
23873980,2,3,114,1,1169,1,0,0,NA,NA,31
23873980,2,3,115,1,1864,1,1,0,NA,NA,31
23873980,2,3,116,2,1097,1,0,0,NA,NA,31
23873980,2,3,117,2,996,1,0,0,NA,NA,31
23873980,2,3,118,2,1113,0,0,0,NA,NA,31
23873980,2,3,119,2,1143,0,0,0,NA,NA,31
23873980,2,3,120,1,1069,1,1,0,NA,NA,31
23873980,2,3,121,1,1379,0,0,0,NA,NA,31
23873980,2,3,122,2,1055,0,0,0,NA,NA,31
23873980,2,3,123,2,1371,0,0,0,NA,NA,31
23873980,2,3,124,2,1990,1,0,0,NA,NA,31
23873980,2,3,125,2,1123,1,0,0,NA,NA,31
23873980,2,3,126,2,1117,0,0,0,NA,NA,31
23873980,2,3,127,1,1031,0,1,0,NA,NA,31
23873980,2,3,128,1,1143,1,1,0,NA,NA,31
23873980,2,3,129,1,1175,1,0,0,NA,NA,31
23873980,2,3,130,1,1267,0,0,2,R,2,31
23873980,2,3,131,2,1271,0,0,0,NA,NA,31
23873980,2,3,132,2,1059,0,0,0,NA,NA,31
23873980,2,3,133,2,1239,0,0,0,NA,NA,31
23873980,2,3,134,1,1067,1,1,0,NA,NA,31
23873980,2,3,135,1,1415,0,0,0,NA,NA,31
23873980,2,3,136,1,1848,0,0,0,NA,NA,31
23873980,2,3,137,2,1019,0,0,0,NA,NA,31
23873980,2,3,138,1,1227,0,0,0,NA,NA,31
23873980,2,3,139,2,1042,0,0,0,NA,NA,31
23873980,2,3,140,2,1073,0,0,0,NA,NA,31
23873980,2,3,141,2,981,1,0,0,NA,NA,31
23873980,2,3,142,2,1094,1,0,0,NA,NA,31
23873980,2,3,143,2,1018,0,0,0,NA,NA,31
23873980,2,3,144,2,1127,0,0,0,NA,NA,31
23873980,2,3,145,2,1251,1,0,0,NA,NA,31
23873980,2,3,146,2,1247,1,0,0,NA,NA,31
23873980,2,3,147,2,1080,0,0,0,NA,NA,31
23873980,2,3,148,2,1050,0,0,0,NA,NA,31
23873980,2,3,149,1,1034,0,0,0,NA,NA,31
23873980,2,3,150,2,1173,1,0,0,NA,NA,31
23873980,2,3,151,2,1171,1,0,0,NA,NA,31
23873980,2,3,152,2,1123,1,0,0,NA,NA,31
23873980,2,3,153,2,1137,0,0,0,NA,NA,31
23873980,2,3,154,2,1348,0,0,0,NA,NA,31
23873980,2,3,155,1,1227,0,0,0,NA,NA,31
23873980,2,3,156,2,1193,0,0,0,NA,NA,31
23873980,2,3,157,1,1133,1,1,0,NA,NA,31
23873980,2,3,158,1,1057,0,1,0,NA,NA,31
23873980,2,3,159,2,1094,0,0,0,NA,NA,31
23873980,2,3,160,2,1224,0,0,0,NA,NA,31
23873980,2,3,161,1,1057,0,1,0,NA,NA,31
23873980,2,3,162,2,1081,0,0,0,NA,NA,31
23873980,2,3,163,2,1264,0,0,0,NA,NA,31
23873980,2,3,164,2,1666,0,0,0,NA,NA,31
23873980,2,3,165,2,1181,1,0,0,NA,NA,31
23873980,2,3,166,2,1197,0,0,0,NA,NA,31
23873980,2,3,167,2,1073,0,0,0,NA,NA,31
23873980,2,3,168,1,1132,0,1,0,NA,NA,31
23873980,2,3,169,2,1054,0,0,0,NA,NA,31
23873980,2,3,170,2,1155,1,0,0,NA,NA,31
23873980,2,3,171,2,1163,0,0,0,NA,NA,31
23873980,2,3,172,2,1159,0,0,0,NA,NA,31
23873980,2,3,173,1,1484,0,1,0,NA,NA,31
23873980,2,3,174,2,1107,0,0,0,NA,NA,31
23873980,2,3,175,2,1073,0,0,0,NA,NA,31
23873980,2,3,176,2,1270,0,0,0,NA,NA,31
23873980,2,3,177,2,1062,0,0,0,NA,NA,31
23873980,2,3,178,2,1220,0,0,0,NA,NA,31
23873980,2,3,179,1,1059,0,0,0,NA,NA,31
23873980,2,3,180,1,1039,1,0,0,NA,NA,31
23873980,2,3,181,1,1083,1,1,0,NA,NA,31
23873980,2,3,182,1,1224,0,1,0,NA,NA,31
23873980,2,3,183,2,1084,0,0,0,NA,NA,31
23873980,2,3,184,2,1357,0,0,0,NA,NA,31
23873980,2,3,185,1,1154,1,1,0,NA,NA,31
23873980,2,3,186,1,1113,1,0,0,NA,NA,31
23873980,2,3,187,1,1120,1,0,0,NA,NA,31
23873980,2,3,188,1,1131,1,1,0,NA,NA,31
23873980,2,3,189,1,1169,0,1,0,NA,NA,31
23873980,2,3,190,2,1109,0,0,0,NA,NA,31
23873980,2,3,191,1,1890,1,1,0,NA,NA,31
23873980,2,3,192,2,1831,0,0,0,NA,NA,31
23873980,2,3,193,1,1030,1,0,0,NA,NA,31
23873980,2,3,194,1,1194,0,0,0,NA,NA,31
23873980,2,3,195,1,1092,0,1,0,NA,NA,31
23873980,2,3,196,1,1100,0,1,0,NA,NA,31
23873980,2,3,197,2,1054,1,0,0,NA,NA,31
23873980,2,3,198,2,1104,1,0,0,NA,NA,31
23873980,2,3,199,2,1076,1,0,0,NA,NA,31
23873980,2,3,200,2,1126,0,0,0,NA,NA,31
23873980,2,3,201,2,1186,0,0,3,R,3,31
39966375,1,1,1,1,1708,0,1,0,NA,NA,47
39966375,1,1,2,2,1251,0,0,0,NA,NA,47
39966375,1,1,3,1,1179,0,0,0,NA,NA,47
39966375,1,1,4,1,1383,0,0,0,NA,NA,47
39966375,1,1,5,2,1081,1,0,0,NA,NA,47
39966375,1,1,6,2,1032,0,0,0,NA,NA,47
39966375,1,1,7,1,1157,1,0,0,NA,NA,47
39966375,1,1,8,2,1333,1,0,0,NA,NA,47
39966375,1,1,9,2,1277,0,0,0,NA,NA,47
39966375,1,1,10,2,1530,0,0,0,NA,NA,47
39966375,1,1,11,1,1188,1,0,0,NA,NA,47
39966375,1,1,12,1,1240,1,0,0,NA,NA,47
39966375,1,1,13,2,1055,0,0,0,NA,NA,47
39966375,1,1,14,2,914,0,0,0,NA,NA,47
39966375,1,1,15,2,1057,0,0,0,NA,NA,47
39966375,1,1,16,1,1146,1,0,0,NA,NA,47
39966375,1,1,17,1,1161,1,1,0,NA,NA,47
39966375,1,1,18,1,1161,1,0,0,NA,NA,47
39966375,1,1,19,2,1007,0,0,0,NA,NA,47
39966375,1,1,20,2,1590,1,0,0,NA,NA,47
39966375,1,1,21,2,1259,0,0,0,NA,NA,47
39966375,1,1,22,1,1270,0,1,0,NA,NA,47
39966375,1,1,23,2,1323,0,0,2,L,2,47
39966375,1,1,24,2,1264,0,0,0,NA,NA,47
39966375,1,1,25,1,1778,0,0,0,NA,NA,47
39966375,1,1,26,1,961,0,0,0,NA,NA,47
39966375,1,1,27,2,1061,0,0,0,NA,NA,47
39966375,1,1,28,1,1127,1,0,0,NA,NA,47
39966375,1,1,29,1,1037,1,1,0,NA,NA,47
39966375,1,1,30,1,1047,0,0,0,NA,NA,47
39966375,1,1,31,2,1089,0,0,0,NA,NA,47
39966375,1,1,32,2,1107,1,0,0,NA,NA,47
39966375,1,1,33,1,1007,0,0,0,NA,NA,47
39966375,1,1,34,1,1168,0,0,0,NA,NA,47
39966375,1,1,35,2,1018,1,0,0,NA,NA,47
39966375,1,1,36,2,1080,1,0,0,NA,NA,47
39966375,1,1,37,1,992,0,0,0,NA,NA,47
39966375,1,1,38,2,1188,0,0,0,NA,NA,47
39966375,1,1,39,2,1145,1,0,0,NA,NA,47
39966375,1,1,40,2,1018,1,0,0,NA,NA,47
39966375,1,1,41,1,1045,0,1,0,NA,NA,47
39966375,1,1,42,1,1037,1,0,0,NA,NA,47
39966375,1,1,43,2,984,0,0,0,NA,NA,47
39966375,1,1,44,2,1072,0,0,0,NA,NA,47
39966375,1,1,45,2,1105,0,0,0,NA,NA,47
39966375,1,1,46,1,1122,1,0,0,NA,NA,47
39966375,1,1,47,1,1135,1,0,0,NA,NA,47
39966375,1,1,48,2,976,0,0,0,NA,NA,47
39966375,1,1,49,1,1011,1,0,0,NA,NA,47
39966375,1,1,50,1,1149,1,1,0,NA,NA,47
39966375,1,1,51,2,1229,0,0,0,NA,NA,47
39966375,1,1,52,2,1002,0,0,0,NA,NA,47
39966375,1,1,53,1,1042,1,1,0,NA,NA,47
39966375,1,1,54,1,1154,1,1,0,NA,NA,47
39966375,1,1,55,1,1060,1,1,0,NA,NA,47
39966375,1,1,56,2,1016,0,0,0,NA,NA,47
39966375,1,1,57,2,1130,0,0,0,NA,NA,47
39966375,1,1,58,2,1011,1,0,0,NA,NA,47
39966375,1,1,59,1,1050,0,0,0,NA,NA,47
39966375,1,1,60,2,1019,0,0,0,NA,NA,47
39966375,1,1,61,2,1158,0,0,0,NA,NA,47
39966375,1,1,62,1,1125,0,1,0,NA,NA,47
39966375,1,1,63,2,1210,0,0,0,NA,NA,47
39966375,1,1,64,1,1048,1,0,0,NA,NA,47
39966375,1,1,65,1,993,0,1,0,NA,NA,47
39966375,1,1,66,2,1125,0,0,0,NA,NA,47
39966375,1,1,67,2,1218,1,0,0,NA,NA,47
39966375,1,1,68,2,1803,1,0,0,NA,NA,47
39966375,1,1,69,1,1186,1,0,0,NA,NA,47
39966375,1,1,70,2,1331,1,0,0,NA,NA,47
39966375,1,1,71,2,977,0,0,0,NA,NA,47
39966375,1,1,72,1,1181,1,0,0,NA,NA,47
39966375,1,1,73,1,1188,0,1,0,NA,NA,47
39966375,1,1,74,2,1104,0,0,0,NA,NA,47
39966375,1,1,75,2,987,0,0,0,NA,NA,47
39966375,1,1,76,1,1044,0,0,0,NA,NA,47
39966375,1,1,77,1,1161,1,0,0,NA,NA,47
39966375,1,1,78,2,1012,1,0,0,NA,NA,47
39966375,1,1,79,1,938,0,0,0,NA,NA,47
39966375,1,1,80,1,1214,1,0,0,NA,NA,47
39966375,1,1,81,2,1580,1,0,0,NA,NA,47
39966375,1,1,82,1,1423,0,0,0,NA,NA,47
39966375,1,1,83,2,1486,1,0,0,NA,NA,47
39966375,1,1,84,2,1199,1,0,0,NA,NA,47
39966375,1,1,85,1,1050,0,0,0,NA,NA,47
39966375,1,1,86,2,1109,1,0,0,NA,NA,47
39966375,1,1,87,2,1123,1,0,0,NA,NA,47
39966375,1,1,88,2,1354,1,0,0,NA,NA,47
39966375,1,1,89,2,1192,0,0,0,NA,NA,47
39966375,1,1,90,2,1471,0,0,0,NA,NA,47
39966375,1,1,91,1,955,1,0,0,NA,NA,47
39966375,1,1,92,1,1165,0,1,0,NA,NA,47
39966375,1,1,93,2,1237,0,0,0,NA,NA,47
39966375,1,1,94,1,1613,1,0,0,NA,NA,47
39966375,1,1,95,1,1378,1,0,0,NA,NA,47
39966375,1,1,96,2,1636,0,0,0,NA,NA,47
39966375,1,1,97,2,1205,1,0,0,NA,NA,47
39966375,1,1,98,1,1128,1,1,0,NA,NA,47
39966375,1,1,99,2,979,1,0,0,NA,NA,47
39966375,1,1,100,2,1106,0,0,0,NA,NA,47
39966375,1,1,101,1,1081,0,1,0,NA,NA,47
39966375,1,1,102,2,1022,0,0,0,NA,NA,47
39966375,1,1,103,2,1005,0,0,0,NA,NA,47
39966375,1,1,104,2,1053,0,0,0,NA,NA,47
39966375,1,1,105,1,1122,1,1,0,NA,NA,47
39966375,1,1,106,2,1201,0,0,0,NA,NA,47
39966375,1,1,107,1,1287,1,1,0,NA,NA,47
39966375,1,1,108,1,1366,1,1,0,NA,NA,47
39966375,1,1,109,2,1282,0,0,0,NA,NA,47
39966375,1,1,110,2,1086,1,0,0,NA,NA,47
39966375,1,1,111,1,1131,1,0,0,NA,NA,47
39966375,1,1,112,2,1057,0,0,0,NA,NA,47
39966375,1,1,113,2,1256,0,0,0,NA,NA,47
39966375,1,1,114,2,1095,0,0,0,NA,NA,47
39966375,1,1,115,2,1193,0,0,0,NA,NA,47
39966375,1,1,116,2,1126,0,0,0,NA,NA,47
39966375,1,1,117,2,1076,0,0,0,NA,NA,47
39966375,1,1,118,2,1068,0,0,0,NA,NA,47
39966375,1,1,119,1,920,1,0,0,NA,NA,47
39966375,1,1,120,1,961,1,1,0,NA,NA,47
39966375,1,1,121,2,1179,0,0,0,NA,NA,47
39966375,1,1,122,2,1045,0,0,0,NA,NA,47
39966375,1,1,123,2,977,0,0,0,NA,NA,47
39966375,1,1,124,1,986,1,1,0,NA,NA,47
39966375,1,1,125,2,1089,0,0,0,NA,NA,47
39966375,1,1,126,1,944,0,0,0,NA,NA,47
39966375,1,1,127,2,1027,0,0,0,NA,NA,47
39966375,1,1,128,2,1108,0,0,3,L,3,47
39966375,1,1,129,2,1206,0,0,0,NA,NA,47
39966375,1,1,130,2,1155,0,0,0,NA,NA,47
39966375,1,1,131,1,1022,0,1,0,NA,NA,47
39966375,1,1,132,1,983,0,1,0,NA,NA,47
39966375,1,1,133,2,984,0,0,0,NA,NA,47
39966375,1,1,134,1,987,0,0,0,NA,NA,47
39966375,1,1,135,1,1135,0,0,0,NA,NA,47
39966375,1,1,136,1,1012,0,1,0,NA,NA,47
39966375,1,1,137,2,1027,0,0,0,NA,NA,47
39966375,1,1,138,2,1255,0,0,0,NA,NA,47
39966375,1,1,139,1,1288,0,1,0,NA,NA,47
39966375,1,1,140,2,1116,0,0,0,NA,NA,47
39966375,1,1,141,2,1094,0,0,0,NA,NA,47
39966375,1,1,142,1,957,1,0,0,NA,NA,47
39966375,1,1,143,1,972,0,1,0,NA,NA,47
39966375,1,1,144,1,863,1,0,0,NA,NA,47
39966375,1,1,145,2,945,0,0,0,NA,NA,47
39966375,1,1,146,2,851,0,0,0,NA,NA,47
39966375,1,1,147,2,1330,0,0,0,NA,NA,47
39966375,1,1,148,1,1080,0,0,0,NA,NA,47
39966375,1,1,149,1,997,0,1,0,NA,NA,47
39966375,1,1,150,2,990,1,0,0,NA,NA,47
39966375,1,1,151,2,933,0,0,0,NA,NA,47
39966375,1,1,152,2,1093,0,0,0,NA,NA,47
39966375,1,1,153,2,1176,1,0,0,NA,NA,47
39966375,1,1,154,2,975,1,0,0,NA,NA,47
39966375,1,1,155,2,1001,0,0,0,NA,NA,47
39966375,1,1,156,2,1186,0,0,0,NA,NA,47
39966375,1,1,157,2,976,0,0,0,NA,NA,47
39966375,1,1,158,1,1102,0,1,0,NA,NA,47
39966375,1,1,159,1,956,0,0,0,NA,NA,47
39966375,1,1,160,2,960,0,0,0,NA,NA,47
39966375,1,1,161,2,977,0,0,0,NA,NA,47
39966375,1,1,162,2,876,0,0,0,NA,NA,47
39966375,1,1,163,2,902,0,0,0,NA,NA,47
39966375,1,1,164,1,964,0,0,0,NA,NA,47
39966375,1,1,165,1,973,0,0,0,NA,NA,47
39966375,1,1,166,2,1282,0,0,0,NA,NA,47
39966375,1,1,167,1,1037,0,0,0,NA,NA,47
39966375,1,1,168,1,1161,0,0,0,NA,NA,47
39966375,1,1,169,1,1062,0,0,0,NA,NA,47
39966375,1,1,170,1,1314,1,0,0,NA,NA,47
39966375,1,1,171,2,1076,0,0,0,NA,NA,47
39966375,1,1,172,1,1671,0,0,0,NA,NA,47
39966375,1,1,173,2,1198,0,0,0,NA,NA,47
39966375,1,1,174,1,1043,0,0,0,NA,NA,47
39966375,1,1,175,1,954,0,0,0,NA,NA,47
39966375,1,1,176,1,1156,0,0,0,NA,NA,47
39966375,1,1,177,1,1128,0,0,0,NA,NA,47
39966375,1,1,178,1,1015,0,1,0,NA,NA,47
39966375,1,1,179,1,1142,0,1,0,NA,NA,47
39966375,1,1,180,2,1129,1,0,0,NA,NA,47
39966375,1,1,181,2,972,0,0,0,NA,NA,47
39966375,1,1,182,2,1212,1,0,0,NA,NA,47
39966375,1,1,183,2,1040,0,0,0,NA,NA,47
39966375,1,1,184,2,1026,0,0,0,NA,NA,47
39966375,1,1,185,1,1618,1,0,0,NA,NA,47
39966375,1,1,186,2,1072,0,0,0,NA,NA,47
39966375,1,1,187,2,1094,1,0,0,NA,NA,47
39966375,1,1,188,2,1127,0,0,0,NA,NA,47
39966375,1,1,189,2,1080,0,0,0,NA,NA,47
39966375,1,1,190,1,1194,0,1,0,NA,NA,47
39966375,1,1,191,2,1111,1,0,0,NA,NA,47
39966375,1,1,192,2,1193,1,0,0,NA,NA,47
39966375,1,1,193,2,910,0,0,0,NA,NA,47
39966375,1,1,194,2,1021,0,0,0,NA,NA,47
39966375,1,1,195,2,962,0,0,0,NA,NA,47
39966375,1,1,196,2,1001,0,0,0,NA,NA,47
39966375,1,1,197,1,933,0,1,0,NA,NA,47
39966375,1,1,198,1,969,0,1,0,NA,NA,47
39966375,1,1,199,1,1012,0,1,0,NA,NA,47
39966375,1,1,200,2,997,0,0,0,NA,NA,47
39966375,1,1,201,2,1220,0,0,2,L,2,47
39966375,2,3,1,1,1393,0,1,0,NA,NA,11
39966375,2,3,2,2,1184,0,0,0,NA,NA,11
39966375,2,3,3,2,1033,0,0,0,NA,NA,11
39966375,2,3,4,2,958,0,0,0,NA,NA,11
39966375,2,3,5,1,1024,0,1,0,NA,NA,11
39966375,2,3,6,1,1138,1,0,0,NA,NA,11
39966375,2,3,7,2,1145,0,0,0,NA,NA,11
39966375,2,3,8,1,1157,1,0,0,NA,NA,11
39966375,2,3,9,2,1041,0,0,0,NA,NA,11
39966375,2,3,10,2,1342,0,0,0,NA,NA,11
39966375,2,3,11,1,1198,0,0,0,NA,NA,11
39966375,2,3,12,1,1161,1,0,0,NA,NA,11
39966375,2,3,13,2,1380,0,0,0,NA,NA,11
39966375,2,3,14,2,1029,1,0,0,NA,NA,11
39966375,2,3,15,1,1092,1,0,0,NA,NA,11
39966375,2,3,16,1,1050,1,0,0,NA,NA,11
39966375,2,3,17,2,971,0,0,0,NA,NA,11
39966375,2,3,18,2,1146,1,0,0,NA,NA,11
39966375,2,3,19,2,1412,0,0,0,NA,NA,11
39966375,2,3,20,2,973,1,0,0,NA,NA,11
39966375,2,3,21,2,961,0,0,0,NA,NA,11
39966375,2,3,22,2,1009,0,0,2,L,2,11
39966375,2,3,23,2,1451,0,0,0,NA,NA,11
39966375,2,3,24,1,950,0,1,0,NA,NA,11
39966375,2,3,25,2,949,0,0,0,NA,NA,11
39966375,2,3,26,1,989,1,0,0,NA,NA,11
39966375,2,3,27,2,1285,1,0,0,NA,NA,11
39966375,2,3,28,2,990,1,0,0,NA,NA,11
39966375,2,3,29,1,1019,0,1,0,NA,NA,11
39966375,2,3,30,2,1207,0,0,0,NA,NA,11
39966375,2,3,31,2,977,0,0,0,NA,NA,11
39966375,2,3,32,2,1081,0,0,0,NA,NA,11
39966375,2,3,33,2,1125,0,0,0,NA,NA,11
39966375,2,3,34,2,991,0,0,0,NA,NA,11
39966375,2,3,35,1,880,1,0,0,NA,NA,11
39966375,2,3,36,2,1041,0,0,0,NA,NA,11
39966375,2,3,37,1,1392,0,0,0,NA,NA,11
39966375,2,3,38,2,1122,1,0,0,NA,NA,11
39966375,2,3,39,2,1086,0,0,0,NA,NA,11
39966375,2,3,40,2,1010,0,0,0,NA,NA,11
39966375,2,3,41,1,1094,0,0,0,NA,NA,11
39966375,2,3,42,1,1003,0,0,0,NA,NA,11
39966375,2,3,43,2,1005,0,0,0,NA,NA,11
39966375,2,3,44,1,989,1,1,0,NA,NA,11
39966375,2,3,45,2,1097,1,0,0,NA,NA,11
39966375,2,3,46,2,1063,0,0,0,NA,NA,11
39966375,2,3,47,1,1067,0,1,0,NA,NA,11
39966375,2,3,48,2,1111,0,0,0,NA,NA,11
39966375,2,3,49,2,985,0,0,0,NA,NA,11
39966375,2,3,50,2,983,0,0,0,NA,NA,11
39966375,2,3,51,1,1056,0,1,0,NA,NA,11
39966375,2,3,52,2,985,0,0,0,NA,NA,11
39966375,2,3,53,2,1112,0,0,0,NA,NA,11
39966375,2,3,54,1,1335,0,1,0,NA,NA,11
39966375,2,3,55,2,1142,0,0,0,NA,NA,11
39966375,2,3,56,2,1092,1,0,0,NA,NA,11
39966375,2,3,57,2,1071,0,0,0,NA,NA,11
39966375,2,3,58,2,989,0,0,0,NA,NA,11
39966375,2,3,59,2,1045,1,0,0,NA,NA,11
39966375,2,3,60,2,1153,1,0,0,NA,NA,11
39966375,2,3,61,2,989,1,0,0,NA,NA,11
39966375,2,3,62,2,1356,0,0,0,NA,NA,11
39966375,2,3,63,2,1080,0,0,0,NA,NA,11
39966375,2,3,64,2,969,0,0,0,NA,NA,11
39966375,2,3,65,2,1022,1,0,0,NA,NA,11
39966375,2,3,66,2,937,1,0,0,NA,NA,11
39966375,2,3,67,2,1007,1,0,0,NA,NA,11
39966375,2,3,68,2,922,1,0,0,NA,NA,11
39966375,2,3,69,1,1116,0,0,0,NA,NA,11
39966375,2,3,70,2,979,1,0,0,NA,NA,11
39966375,2,3,71,2,998,0,0,0,NA,NA,11
39966375,2,3,72,2,982,1,0,0,NA,NA,11
39966375,2,3,73,2,981,1,0,0,NA,NA,11
39966375,2,3,74,2,985,0,0,0,NA,NA,11
39966375,2,3,75,2,969,0,0,0,NA,NA,11
39966375,2,3,76,2,953,0,0,0,NA,NA,11
39966375,2,3,77,2,1033,0,0,0,NA,NA,11
39966375,2,3,78,1,937,1,0,0,NA,NA,11
39966375,2,3,79,2,1128,1,0,0,NA,NA,11
39966375,2,3,80,2,1033,1,0,0,NA,NA,11
39966375,2,3,81,2,1013,0,0,0,NA,NA,11
39966375,2,3,82,2,1181,1,0,0,NA,NA,11
39966375,2,3,83,2,1164,1,0,0,NA,NA,11
39966375,2,3,84,2,976,1,0,0,NA,NA,11
39966375,2,3,85,2,919,1,0,0,NA,NA,11
39966375,2,3,86,2,1003,0,0,0,NA,NA,11
39966375,2,3,87,2,1035,0,0,0,NA,NA,11
39966375,2,3,88,2,1061,0,0,0,NA,NA,11
39966375,2,3,89,2,972,1,0,0,NA,NA,11
39966375,2,3,90,2,1011,0,0,0,NA,NA,11
39966375,2,3,91,2,978,0,0,0,NA,NA,11
39966375,2,3,92,1,980,0,0,0,NA,NA,11
39966375,2,3,93,2,1003,0,0,0,NA,NA,11
39966375,2,3,94,2,1053,0,0,0,NA,NA,11
39966375,2,3,95,2,997,0,0,0,NA,NA,11
39966375,2,3,96,2,1097,0,0,0,NA,NA,11
39966375,2,3,97,2,1010,1,0,0,NA,NA,11
39966375,2,3,98,2,1018,0,0,0,NA,NA,11
39966375,2,3,99,2,1012,0,0,0,NA,NA,11
39966375,2,3,100,2,2587,0,0,0,NA,NA,11
39966375,2,3,101,2,946,0,0,0,NA,NA,11
39966375,2,3,102,2,996,0,0,0,NA,NA,11
39966375,2,3,103,2,969,0,0,0,NA,NA,11
39966375,2,3,104,2,995,0,0,0,NA,NA,11
39966375,2,3,105,2,984,1,0,0,NA,NA,11
39966375,2,3,106,1,978,0,0,0,NA,NA,11
39966375,2,3,107,2,1144,1,0,0,NA,NA,11
39966375,2,3,108,2,1107,1,0,0,NA,NA,11
39966375,2,3,109,2,1165,1,0,0,NA,NA,11
39966375,2,3,110,2,1115,1,0,0,NA,NA,11
39966375,2,3,111,2,1016,0,0,0,NA,NA,11
39966375,2,3,112,2,1052,1,0,0,NA,NA,11
39966375,2,3,113,2,1041,0,0,0,NA,NA,11
39966375,2,3,114,2,918,1,0,0,NA,NA,11
39966375,2,3,115,2,1076,0,0,3,L,3,11
39966375,2,3,116,2,1047,0,0,0,NA,NA,11
39966375,2,3,117,2,969,0,0,0,NA,NA,11
39966375,2,3,118,2,966,0,0,0,NA,NA,11
39966375,2,3,119,2,1070,1,0,0,NA,NA,11
39966375,2,3,120,2,985,0,0,0,NA,NA,11
39966375,2,3,121,1,957,1,0,0,NA,NA,11
39966375,2,3,122,2,1078,1,0,0,NA,NA,11
39966375,2,3,123,2,1218,0,0,0,NA,NA,11
39966375,2,3,124,2,1192,0,0,0,NA,NA,11
39966375,2,3,125,2,1037,0,0,0,NA,NA,11
39966375,2,3,126,2,1044,1,0,0,NA,NA,11
39966375,2,3,127,2,1187,1,0,0,NA,NA,11
39966375,2,3,128,2,976,1,0,0,NA,NA,11
39966375,2,3,129,2,1031,1,0,0,NA,NA,11
39966375,2,3,130,2,972,0,0,0,NA,NA,11
39966375,2,3,131,2,1011,1,0,0,NA,NA,11
39966375,2,3,132,2,1025,0,0,0,NA,NA,11
39966375,2,3,133,2,973,1,0,0,NA,NA,11
39966375,2,3,134,2,961,1,0,0,NA,NA,11
39966375,2,3,135,2,1092,0,0,0,NA,NA,11
39966375,2,3,136,2,1014,1,0,0,NA,NA,11
39966375,2,3,137,2,995,1,0,0,NA,NA,11
39966375,2,3,138,2,1286,0,0,0,NA,NA,11
39966375,2,3,139,2,1037,0,0,0,NA,NA,11
39966375,2,3,140,2,1071,1,0,0,NA,NA,11
39966375,2,3,141,2,990,1,0,0,NA,NA,11
39966375,2,3,142,2,969,0,0,0,NA,NA,11
39966375,2,3,143,2,938,0,0,0,NA,NA,11
39966375,2,3,144,2,1284,1,0,0,NA,NA,11
39966375,2,3,145,2,973,1,0,0,NA,NA,11
39966375,2,3,146,2,1142,1,0,0,NA,NA,11
39966375,2,3,147,2,1226,0,0,0,NA,NA,11
39966375,2,3,148,2,1093,1,0,0,NA,NA,11
39966375,2,3,149,2,1081,0,0,0,NA,NA,11
39966375,2,3,150,2,1361,0,0,0,NA,NA,11
39966375,2,3,151,2,982,1,0,0,NA,NA,11
39966375,2,3,152,2,970,1,0,0,NA,NA,11
39966375,2,3,153,2,1031,1,0,0,NA,NA,11
39966375,2,3,154,2,1010,1,0,0,NA,NA,11
39966375,2,3,155,2,972,0,0,0,NA,NA,11
39966375,2,3,156,2,1003,0,0,0,NA,NA,11
39966375,2,3,157,2,995,0,0,0,NA,NA,11
39966375,2,3,158,2,1038,0,0,0,NA,NA,11
39966375,2,3,159,2,1016,1,0,0,NA,NA,11
39966375,2,3,160,2,1039,0,0,0,NA,NA,11
39966375,2,3,161,2,1041,0,0,0,NA,NA,11
39966375,2,3,162,2,947,0,0,0,NA,NA,11
39966375,2,3,163,2,980,0,0,0,NA,NA,11
39966375,2,3,164,2,1015,1,0,0,NA,NA,11
39966375,2,3,165,2,1346,0,0,0,NA,NA,11
39966375,2,3,166,2,1052,0,0,0,NA,NA,11
39966375,2,3,167,1,1208,1,1,0,NA,NA,11
39966375,2,3,168,2,1066,0,0,0,NA,NA,11
39966375,2,3,169,2,1031,1,0,0,NA,NA,11
39966375,2,3,170,2,1130,0,0,0,NA,NA,11
39966375,2,3,171,2,1009,0,0,0,NA,NA,11
39966375,2,3,172,2,971,0,0,0,NA,NA,11
39966375,2,3,173,2,1013,0,0,0,NA,NA,11
39966375,2,3,174,2,1040,0,0,0,NA,NA,11
39966375,2,3,175,2,1008,0,0,0,NA,NA,11
39966375,2,3,176,2,991,0,0,0,NA,NA,11
39966375,2,3,177,2,994,0,0,0,NA,NA,11
39966375,2,3,178,2,1021,0,0,0,NA,NA,11
39966375,2,3,179,2,1061,0,0,0,NA,NA,11
39966375,2,3,180,2,994,0,0,0,NA,NA,11
39966375,2,3,181,2,994,0,0,0,NA,NA,11
39966375,2,3,182,2,1023,0,0,0,NA,NA,11
39966375,2,3,183,2,1019,0,0,0,NA,NA,11
39966375,2,3,184,2,986,0,0,0,NA,NA,11
39966375,2,3,185,2,968,0,0,0,NA,NA,11
39966375,2,3,186,2,991,0,0,0,NA,NA,11
39966375,2,3,187,2,1009,0,0,0,NA,NA,11
39966375,2,3,188,2,1018,0,0,0,NA,NA,11
39966375,2,3,189,2,982,0,0,0,NA,NA,11
39966375,2,3,190,2,1298,0,0,0,NA,NA,11
39966375,2,3,191,2,1051,0,0,0,NA,NA,11
39966375,2,3,192,2,1166,0,0,0,NA,NA,11
39966375,2,3,193,2,1016,0,0,0,NA,NA,11
39966375,2,3,194,2,1001,0,0,0,NA,NA,11
39966375,2,3,195,2,1033,0,0,0,NA,NA,11
39966375,2,3,196,2,1066,0,0,0,NA,NA,11
39966375,2,3,197,2,981,0,0,0,NA,NA,11
39966375,2,3,198,2,1069,0,0,0,NA,NA,11
39966375,2,3,199,2,1020,0,0,0,NA,NA,11
39966375,2,3,200,2,1057,0,0,0,NA,NA,11
39966375,2,3,201,2,961,0,0,3,L,3,11
76091555,1,1,1,2,1974,0,0,0,NA,NA,42
76091555,1,1,2,1,1223,1,1,0,NA,NA,42
76091555,1,1,3,1,1339,1,0,0,NA,NA,42
76091555,1,1,4,1,1233,1,0,0,NA,NA,42
76091555,1,1,5,1,1069,1,0,0,NA,NA,42
76091555,1,1,6,1,1021,1,0,0,NA,NA,42
76091555,1,1,7,1,1056,1,0,0,NA,NA,42
76091555,1,1,8,1,1028,1,0,0,NA,NA,42
76091555,1,1,9,1,996,1,0,0,NA,NA,42
76091555,1,1,10,1,1018,1,0,0,NA,NA,42
76091555,1,1,11,1,997,1,0,0,NA,NA,42
76091555,1,1,12,1,1041,1,0,0,NA,NA,42
76091555,1,1,13,1,1158,1,0,0,NA,NA,42
76091555,1,1,14,1,989,0,0,0,NA,NA,42
76091555,1,1,15,1,1227,1,1,0,NA,NA,42
76091555,1,1,16,1,970,1,1,0,NA,NA,42
76091555,1,1,17,1,1082,1,0,0,NA,NA,42
76091555,1,1,18,1,1161,1,0,0,NA,NA,42
76091555,1,1,19,1,1016,1,0,0,NA,NA,42
76091555,1,1,20,1,964,1,0,0,NA,NA,42
76091555,1,1,21,1,1048,1,0,0,NA,NA,42
76091555,1,1,22,1,1110,1,1,0,NA,NA,42
76091555,1,1,23,1,1054,0,1,0,NA,NA,42
76091555,1,1,24,1,1011,0,0,0,NA,NA,42
76091555,1,1,25,1,996,1,0,0,NA,NA,42
76091555,1,1,26,1,992,0,0,0,NA,NA,42
76091555,1,1,27,1,1213,0,0,3,R,3,42
76091555,1,1,28,1,1199,1,0,0,NA,NA,42
76091555,1,1,29,1,1090,1,0,0,NA,NA,42
76091555,1,1,30,1,1133,1,0,0,NA,NA,42
76091555,1,1,31,1,1036,0,0,0,NA,NA,42
76091555,1,1,32,1,1149,1,0,0,NA,NA,42
76091555,1,1,33,1,1049,0,1,0,NA,NA,42
76091555,1,1,34,1,1056,1,0,0,NA,NA,42
76091555,1,1,35,1,1049,0,0,0,NA,NA,42
76091555,1,1,36,1,1120,1,1,0,NA,NA,42
76091555,1,1,37,1,1161,0,0,0,NA,NA,42
76091555,1,1,38,1,1020,0,0,0,NA,NA,42
76091555,1,1,39,1,1195,0,0,0,NA,NA,42
76091555,1,1,40,1,1406,1,0,0,NA,NA,42
76091555,1,1,41,1,1094,1,0,0,NA,NA,42
76091555,1,1,42,1,1155,0,0,0,NA,NA,42
76091555,1,1,43,1,1771,1,1,0,NA,NA,42
76091555,1,1,44,1,1212,0,0,0,NA,NA,42
76091555,1,1,45,1,1085,0,0,0,NA,NA,42
76091555,1,1,46,1,1092,1,0,0,NA,NA,42
76091555,1,1,47,1,1097,0,0,0,NA,NA,42
76091555,1,1,48,1,1131,1,0,0,NA,NA,42
76091555,1,1,49,1,1201,0,0,0,NA,NA,42
76091555,1,1,50,1,1017,1,0,0,NA,NA,42
76091555,1,1,51,1,1211,0,0,0,NA,NA,42
76091555,1,1,52,1,1111,0,0,0,NA,NA,42
76091555,1,1,53,2,1141,0,0,0,NA,NA,42
76091555,1,1,54,2,1200,0,0,0,NA,NA,42
76091555,1,1,55,1,1284,1,0,0,NA,NA,42
76091555,1,1,56,1,1107,0,0,0,NA,NA,42
76091555,1,1,57,1,1266,1,1,0,NA,NA,42
76091555,1,1,58,1,1071,0,0,0,NA,NA,42
76091555,1,1,59,1,1054,1,1,0,NA,NA,42
76091555,1,1,60,1,1097,0,1,0,NA,NA,42
76091555,1,1,61,1,1087,1,1,0,NA,NA,42
76091555,1,1,62,1,1025,1,1,0,NA,NA,42
76091555,1,1,63,1,1102,0,1,0,NA,NA,42
76091555,1,1,64,2,1128,0,0,0,NA,NA,42
76091555,1,1,65,1,1009,0,1,0,NA,NA,42
76091555,1,1,66,1,1097,0,0,0,NA,NA,42
76091555,1,1,67,2,1058,1,0,0,NA,NA,42
76091555,1,1,68,2,1008,1,0,0,NA,NA,42
76091555,1,1,69,2,1249,1,0,0,NA,NA,42
76091555,1,1,70,2,1050,0,0,0,NA,NA,42
76091555,1,1,71,2,1038,0,0,0,NA,NA,42
76091555,1,1,72,2,1032,1,0,0,NA,NA,42
76091555,1,1,73,2,1044,0,0,0,NA,NA,42
76091555,1,1,74,2,1182,1,0,0,NA,NA,42
76091555,1,1,75,2,982,1,0,0,NA,NA,42
76091555,1,1,76,2,1259,1,0,0,NA,NA,42
76091555,1,1,77,2,1149,0,0,0,NA,NA,42
76091555,1,1,78,1,1053,0,0,0,NA,NA,42
76091555,1,1,79,2,1077,0,0,0,NA,NA,42
76091555,1,1,80,1,1226,0,1,0,NA,NA,42
76091555,1,1,81,1,1232,0,1,0,NA,NA,42
76091555,1,1,82,2,987,0,0,0,NA,NA,42
76091555,1,1,83,2,1150,1,0,0,NA,NA,42
76091555,1,1,84,2,1125,1,0,0,NA,NA,42
76091555,1,1,85,2,2569,1,0,0,NA,NA,42
76091555,1,1,86,2,1081,0,0,0,NA,NA,42
76091555,1,1,87,2,1068,1,0,0,NA,NA,42
76091555,1,1,88,2,1028,1,0,0,NA,NA,42
76091555,1,1,89,2,1118,1,0,0,NA,NA,42
76091555,1,1,90,2,1111,1,0,0,NA,NA,42
76091555,1,1,91,2,985,0,0,0,NA,NA,42
76091555,1,1,92,2,1266,1,0,0,NA,NA,42
76091555,1,1,93,2,1049,1,0,0,NA,NA,42
76091555,1,1,94,2,986,0,0,0,NA,NA,42
76091555,1,1,95,2,1161,0,0,0,NA,NA,42
76091555,1,1,96,2,1004,0,0,0,NA,NA,42
76091555,1,1,97,1,1064,0,0,0,NA,NA,42
76091555,1,1,98,1,1164,0,0,0,NA,NA,42
76091555,1,1,99,2,1040,0,0,0,NA,NA,42
76091555,1,1,100,1,978,1,0,0,NA,NA,42
76091555,1,1,101,1,967,0,1,0,NA,NA,42
76091555,1,1,102,1,1109,0,0,0,NA,NA,42
76091555,1,1,103,2,1041,0,0,0,NA,NA,42
76091555,1,1,104,2,1002,0,0,0,NA,NA,42
76091555,1,1,105,2,990,0,0,0,NA,NA,42
76091555,1,1,106,1,1023,1,1,0,NA,NA,42
76091555,1,1,107,1,1045,1,1,0,NA,NA,42
76091555,1,1,108,1,1141,1,1,0,NA,NA,42
76091555,1,1,109,1,1024,1,1,0,NA,NA,42
76091555,1,1,110,1,1026,1,0,0,NA,NA,42
76091555,1,1,111,1,1076,1,1,0,NA,NA,42
76091555,1,1,112,1,991,1,0,0,NA,NA,42
76091555,1,1,113,1,1040,1,0,0,NA,NA,42
76091555,1,1,114,1,1022,1,1,0,NA,NA,42
76091555,1,1,115,1,1090,0,0,2,R,2,42
76091555,1,1,116,1,1619,1,1,0,NA,NA,42
76091555,1,1,117,1,1223,1,0,0,NA,NA,42
76091555,1,1,118,1,1036,1,0,0,NA,NA,42
76091555,1,1,119,1,1076,1,1,0,NA,NA,42
76091555,1,1,120,1,1119,0,1,0,NA,NA,42
76091555,1,1,121,1,994,0,1,0,NA,NA,42
76091555,1,1,122,2,1033,0,0,0,NA,NA,42
76091555,1,1,123,2,973,0,0,0,NA,NA,42
76091555,1,1,124,2,1129,0,0,0,NA,NA,42
76091555,1,1,125,1,1383,1,1,0,NA,NA,42
76091555,1,1,126,1,1150,1,1,0,NA,NA,42
76091555,1,1,127,1,1020,0,1,0,NA,NA,42
76091555,1,1,128,1,1052,1,1,0,NA,NA,42
76091555,1,1,129,1,1063,0,0,0,NA,NA,42
76091555,1,1,130,1,1134,0,0,0,NA,NA,42
76091555,1,1,131,1,1162,1,0,0,NA,NA,42
76091555,1,1,132,1,1338,0,1,0,NA,NA,42
76091555,1,1,133,1,1091,1,1,0,NA,NA,42
76091555,1,1,134,1,1186,0,0,0,NA,NA,42
76091555,1,1,135,1,1037,1,0,0,NA,NA,42
76091555,1,1,136,1,1014,0,0,0,NA,NA,42
76091555,1,1,137,1,1044,0,0,0,NA,NA,42
76091555,1,1,138,1,994,1,1,0,NA,NA,42
76091555,1,1,139,1,1115,0,1,0,NA,NA,42
76091555,1,1,140,1,1089,0,0,0,NA,NA,42
76091555,1,1,141,1,1004,0,0,0,NA,NA,42
76091555,1,1,142,1,975,0,0,0,NA,NA,42
76091555,1,1,143,2,1221,0,0,0,NA,NA,42
76091555,1,1,144,2,1024,0,0,0,NA,NA,42
76091555,1,1,145,2,1043,0,0,0,NA,NA,42
76091555,1,1,146,1,1412,0,0,0,NA,NA,42
76091555,1,1,147,1,1112,1,0,0,NA,NA,42
76091555,1,1,148,1,1138,1,1,0,NA,NA,42
76091555,1,1,149,1,1061,1,0,0,NA,NA,42
76091555,1,1,150,1,1513,1,0,0,NA,NA,42
76091555,1,1,151,1,1073,0,1,0,NA,NA,42
76091555,1,1,152,1,1149,0,0,0,NA,NA,42
76091555,1,1,153,1,1124,0,1,0,NA,NA,42
76091555,1,1,154,1,1395,1,0,0,NA,NA,42
76091555,1,1,155,1,1006,0,0,0,NA,NA,42
76091555,1,1,156,1,1121,0,1,0,NA,NA,42
76091555,1,1,157,1,1230,0,0,0,NA,NA,42
76091555,1,1,158,1,1067,0,0,0,NA,NA,42
76091555,1,1,159,1,1161,1,1,0,NA,NA,42
76091555,1,1,160,1,1023,0,0,0,NA,NA,42
76091555,1,1,161,1,1058,1,0,0,NA,NA,42
76091555,1,1,162,1,1687,0,0,0,NA,NA,42
76091555,1,1,163,1,1314,0,0,0,NA,NA,42
76091555,1,1,164,1,1292,0,1,0,NA,NA,42
76091555,1,1,165,2,1289,1,0,0,NA,NA,42
76091555,1,1,166,2,1000,0,0,0,NA,NA,42
76091555,1,1,167,2,1088,0,0,0,NA,NA,42
76091555,1,1,168,1,1239,0,0,0,NA,NA,42
76091555,1,1,169,1,1167,0,0,0,NA,NA,42
76091555,1,1,170,2,2273,1,0,0,NA,NA,42
76091555,1,1,171,2,1038,0,0,0,NA,NA,42
76091555,1,1,172,2,1122,0,0,0,NA,NA,42
76091555,1,1,173,1,1003,0,0,0,NA,NA,42
76091555,1,1,174,1,1076,0,0,0,NA,NA,42
76091555,1,1,175,1,1027,1,1,0,NA,NA,42
76091555,1,1,176,1,950,1,0,0,NA,NA,42
76091555,1,1,177,1,1397,1,0,0,NA,NA,42
76091555,1,1,178,1,1007,0,0,0,NA,NA,42
76091555,1,1,179,1,1218,0,0,0,NA,NA,42
76091555,1,1,180,2,1045,1,0,0,NA,NA,42
76091555,1,1,181,2,1017,1,0,0,NA,NA,42
76091555,1,1,182,2,1213,0,0,0,NA,NA,42
76091555,1,1,183,1,1101,0,1,0,NA,NA,42
76091555,1,1,184,1,1084,0,0,0,NA,NA,42
76091555,1,1,185,1,1082,0,1,0,NA,NA,42
76091555,1,1,186,2,1090,1,0,0,NA,NA,42
76091555,1,1,187,2,992,0,0,0,NA,NA,42
76091555,1,1,188,2,1097,1,0,0,NA,NA,42
76091555,1,1,189,2,1335,0,0,0,NA,NA,42
76091555,1,1,190,2,1351,1,0,0,NA,NA,42
76091555,1,1,191,2,1116,0,0,0,NA,NA,42
76091555,1,1,192,2,1064,0,0,0,NA,NA,42
76091555,1,1,193,1,1069,0,0,0,NA,NA,42
76091555,1,1,194,1,1110,1,0,0,NA,NA,42
76091555,1,1,195,1,1104,0,0,0,NA,NA,42
76091555,1,1,196,1,939,0,0,0,NA,NA,42
76091555,1,1,197,1,1129,1,0,0,NA,NA,42
76091555,1,1,198,1,1071,0,1,0,NA,NA,42
76091555,1,1,199,1,1026,1,0,0,NA,NA,42
76091555,1,1,200,1,1077,0,1,0,NA,NA,42
76091555,1,1,201,1,1242,0,0,1,L,1,42
76091555,2,3,2,2,1273,0,0,0,NA,NA,42
76091555,2,3,3,1,1013,0,0,0,NA,NA,42
76091555,2,3,4,1,870,1,0,0,NA,NA,42
76091555,2,3,5,2,1054,1,0,0,NA,NA,42
76091555,2,3,6,1,937,1,0,0,NA,NA,42
76091555,2,3,7,2,976,1,0,0,NA,NA,42
76091555,2,3,8,1,960,0,0,0,NA,NA,42
76091555,2,3,9,2,982,1,0,0,NA,NA,42
76091555,2,3,10,1,892,1,1,0,NA,NA,42
76091555,2,3,11,2,948,0,0,0,NA,NA,42
76091555,2,3,12,1,1404,1,1,0,NA,NA,42
76091555,2,3,13,1,937,0,0,0,NA,NA,42
76091555,2,3,14,2,971,0,0,0,NA,NA,42
76091555,2,3,15,2,1062,1,0,0,NA,NA,42
76091555,2,3,16,2,958,0,0,0,NA,NA,42
76091555,2,3,17,2,1003,1,0,0,NA,NA,42
76091555,2,3,18,2,1061,0,0,0,NA,NA,42
76091555,2,3,19,1,1071,0,0,0,NA,NA,42
76091555,2,3,20,1,1046,0,1,0,NA,NA,42
76091555,2,3,21,1,1107,0,1,0,NA,NA,42
76091555,2,3,22,2,1089,0,0,0,NA,NA,42
76091555,2,3,23,2,1239,0,0,0,NA,NA,42
76091555,2,3,24,2,1069,0,0,0,NA,NA,42
76091555,2,3,25,1,1022,0,0,0,NA,NA,42
76091555,2,3,26,2,1003,1,0,0,NA,NA,42
76091555,2,3,27,2,1063,0,0,0,NA,NA,42
76091555,2,3,28,1,1269,0,0,0,NA,NA,42
76091555,2,3,29,2,951,1,0,0,NA,NA,42
76091555,2,3,30,1,947,0,0,0,NA,NA,42
76091555,2,3,31,2,1004,0,0,0,NA,NA,42
76091555,2,3,32,2,1099,0,0,0,NA,NA,42
76091555,2,3,33,2,1092,0,0,0,NA,NA,42
76091555,2,3,34,2,1393,0,0,0,NA,NA,42
76091555,2,3,35,2,1025,0,0,0,NA,NA,42
76091555,2,3,36,1,1080,1,1,0,NA,NA,42
76091555,2,3,37,1,977,0,0,2,R,2,42
76091555,2,3,38,1,1146,1,0,0,NA,NA,42
76091555,2,3,39,1,1084,0,0,0,NA,NA,42
76091555,2,3,40,1,1018,0,1,0,NA,NA,42
76091555,2,3,41,1,1070,0,1,0,NA,NA,42
76091555,2,3,42,1,1089,0,0,0,NA,NA,42
76091555,2,3,43,2,1028,0,0,0,NA,NA,42
76091555,2,3,44,1,992,0,0,0,NA,NA,42
76091555,2,3,45,2,964,0,0,0,NA,NA,42
76091555,2,3,46,2,999,0,0,0,NA,NA,42
76091555,2,3,47,2,914,0,0,0,NA,NA,42
76091555,2,3,48,2,1082,0,0,0,NA,NA,42
76091555,2,3,49,2,946,1,0,0,NA,NA,42
76091555,2,3,50,2,1020,0,0,0,NA,NA,42
76091555,2,3,51,2,928,1,0,0,NA,NA,42
76091555,2,3,52,2,923,1,0,0,NA,NA,42
76091555,2,3,53,2,935,0,0,0,NA,NA,42
76091555,2,3,54,2,1135,0,0,0,NA,NA,42
76091555,2,3,55,1,1044,1,1,0,NA,NA,42
76091555,2,3,56,1,1018,0,1,0,NA,NA,42
76091555,2,3,57,1,974,0,0,0,NA,NA,42
76091555,2,3,58,2,1083,0,0,0,NA,NA,42
76091555,2,3,59,1,1156,1,1,0,NA,NA,42
76091555,2,3,60,2,1314,0,0,0,NA,NA,42
76091555,2,3,61,2,963,0,0,0,NA,NA,42
76091555,2,3,62,2,1146,0,0,0,NA,NA,42
76091555,2,3,63,2,1071,0,0,0,NA,NA,42
76091555,2,3,64,2,1181,1,0,0,NA,NA,42
76091555,2,3,65,2,1015,1,0,0,NA,NA,42
76091555,2,3,66,2,1031,0,0,0,NA,NA,42
76091555,2,3,67,2,1034,1,0,0,NA,NA,42
76091555,2,3,68,2,1008,1,0,0,NA,NA,42
76091555,2,3,69,2,966,1,0,0,NA,NA,42
76091555,2,3,70,2,970,0,0,0,NA,NA,42
76091555,2,3,71,2,1082,1,0,0,NA,NA,42
76091555,2,3,72,2,1096,1,0,0,NA,NA,42
76091555,2,3,73,2,963,0,0,0,NA,NA,42
76091555,2,3,74,2,1122,1,0,0,NA,NA,42
76091555,2,3,75,2,1114,1,0,0,NA,NA,42
76091555,2,3,76,2,1006,1,0,0,NA,NA,42
76091555,2,3,77,2,987,1,0,0,NA,NA,42
76091555,2,3,78,2,1128,1,0,0,NA,NA,42
76091555,2,3,79,2,951,0,0,0,NA,NA,42
76091555,2,3,80,2,999,0,0,0,NA,NA,42
76091555,2,3,81,2,1064,0,0,0,NA,NA,42
76091555,2,3,82,2,977,1,0,0,NA,NA,42
76091555,2,3,83,2,1097,0,0,0,NA,NA,42
76091555,2,3,84,2,1018,1,0,0,NA,NA,42
76091555,2,3,85,2,1024,1,0,0,NA,NA,42
76091555,2,3,86,2,992,1,0,0,NA,NA,42
76091555,2,3,87,2,973,0,0,0,NA,NA,42
76091555,2,3,88,2,1161,0,0,0,NA,NA,42
76091555,2,3,89,2,1041,0,0,0,NA,NA,42
76091555,2,3,90,2,1046,0,0,0,NA,NA,42
76091555,2,3,91,2,936,0,0,0,NA,NA,42
76091555,2,3,92,1,1059,0,1,0,NA,NA,42
76091555,2,3,93,1,1124,1,0,0,NA,NA,42
76091555,2,3,94,1,963,0,1,0,NA,NA,42
76091555,2,3,95,1,1370,0,0,0,NA,NA,42
76091555,2,3,96,2,944,0,0,0,NA,NA,42
76091555,2,3,97,2,1063,0,0,0,NA,NA,42
76091555,2,3,98,2,1032,0,0,0,NA,NA,42
76091555,2,3,99,1,1226,0,0,0,NA,NA,42
76091555,2,3,100,2,914,1,0,0,NA,NA,42
76091555,2,3,101,2,1002,1,0,0,NA,NA,42
76091555,2,3,102,2,954,1,0,0,NA,NA,42
76091555,2,3,103,2,1199,0,0,0,NA,NA,42
76091555,2,3,104,2,1117,0,0,0,NA,NA,42
76091555,2,3,105,2,1175,0,0,0,NA,NA,42
76091555,2,3,106,2,1329,0,0,2,L,2,42
76091555,2,3,107,2,1324,1,0,0,NA,NA,42
76091555,2,3,108,2,1062,0,0,0,NA,NA,42
76091555,2,3,109,2,1132,1,0,0,NA,NA,42
76091555,2,3,110,2,1068,0,0,0,NA,NA,42
76091555,2,3,111,2,1178,0,0,0,NA,NA,42
76091555,2,3,112,1,1276,1,1,0,NA,NA,42
76091555,2,3,113,1,1331,0,0,0,NA,NA,42
76091555,2,3,114,1,1208,0,0,0,NA,NA,42
76091555,2,3,115,2,960,0,0,0,NA,NA,42
76091555,2,3,116,2,1089,0,0,0,NA,NA,42
76091555,2,3,117,2,964,1,0,0,NA,NA,42
76091555,2,3,118,2,922,0,0,0,NA,NA,42
76091555,2,3,119,2,1073,1,0,0,NA,NA,42
76091555,2,3,120,2,974,1,0,0,NA,NA,42
76091555,2,3,121,2,1075,1,0,0,NA,NA,42
76091555,2,3,122,2,927,1,0,0,NA,NA,42
76091555,2,3,123,2,1065,0,0,0,NA,NA,42
76091555,2,3,124,2,1128,1,0,0,NA,NA,42
76091555,2,3,125,2,977,0,0,0,NA,NA,42
76091555,2,3,126,2,1030,1,0,0,NA,NA,42
76091555,2,3,127,2,1137,1,0,0,NA,NA,42
76091555,2,3,128,2,928,0,0,0,NA,NA,42
76091555,2,3,129,1,1094,1,1,0,NA,NA,42
76091555,2,3,130,1,995,1,0,0,NA,NA,42
76091555,2,3,131,1,1054,0,0,0,NA,NA,42
76091555,2,3,132,1,951,0,1,0,NA,NA,42
76091555,2,3,133,2,983,1,0,0,NA,NA,42
76091555,2,3,134,2,1011,1,0,0,NA,NA,42
76091555,2,3,135,2,1071,0,0,0,NA,NA,42
76091555,2,3,136,2,1012,1,0,0,NA,NA,42
76091555,2,3,137,2,1006,1,0,0,NA,NA,42
76091555,2,3,138,2,1290,0,0,0,NA,NA,42
76091555,2,3,139,2,1008,1,0,0,NA,NA,42
76091555,2,3,140,2,1103,0,0,0,NA,NA,42
76091555,2,3,141,2,1163,0,0,0,NA,NA,42
76091555,2,3,142,2,1185,1,0,0,NA,NA,42
76091555,2,3,143,2,1021,1,0,0,NA,NA,42
76091555,2,3,144,2,1024,1,0,0,NA,NA,42
76091555,2,3,145,2,1142,1,0,0,NA,NA,42
76091555,2,3,146,2,1093,1,0,0,NA,NA,42
76091555,2,3,147,2,1067,1,0,0,NA,NA,42
76091555,2,3,148,2,977,1,0,0,NA,NA,42
76091555,2,3,149,2,1029,1,0,0,NA,NA,42
76091555,2,3,150,2,996,1,0,0,NA,NA,42
76091555,2,3,151,2,995,0,0,0,NA,NA,42
76091555,2,3,152,2,1020,1,0,0,NA,NA,42
76091555,2,3,153,2,1100,0,0,0,NA,NA,42
76091555,2,3,154,2,1037,1,0,0,NA,NA,42
76091555,2,3,155,2,1118,0,0,0,NA,NA,42
76091555,2,3,156,2,973,0,0,0,NA,NA,42
76091555,2,3,157,2,1007,0,0,0,NA,NA,42
76091555,2,3,158,2,1122,0,0,0,NA,NA,42
76091555,2,3,159,2,999,0,0,0,NA,NA,42
76091555,2,3,160,1,1049,0,0,0,NA,NA,42
76091555,2,3,161,1,1041,1,1,0,NA,NA,42
76091555,2,3,162,1,1087,0,1,0,NA,NA,42
76091555,2,3,163,2,939,0,0,0,NA,NA,42
76091555,2,3,164,2,1083,0,0,0,NA,NA,42
76091555,2,3,165,2,1014,0,0,0,NA,NA,42
76091555,2,3,166,1,1024,1,0,0,NA,NA,42
76091555,2,3,167,1,1043,1,1,0,NA,NA,42
76091555,2,3,168,1,957,1,1,0,NA,NA,42
76091555,2,3,169,1,998,0,1,0,NA,NA,42
76091555,2,3,170,2,916,0,0,0,NA,NA,42
76091555,2,3,171,2,1033,1,0,0,NA,NA,42
76091555,2,3,172,2,1057,0,0,0,NA,NA,42
76091555,2,3,173,2,1344,1,0,0,NA,NA,42
76091555,2,3,174,2,994,1,0,0,NA,NA,42
76091555,2,3,175,2,926,0,0,0,NA,NA,42
76091555,2,3,176,2,919,0,0,0,NA,NA,42
76091555,2,3,177,2,1205,0,0,0,NA,NA,42
76091555,2,3,178,1,1008,1,0,0,NA,NA,42
76091555,2,3,179,1,1141,1,1,0,NA,NA,42
76091555,2,3,180,1,1007,1,1,0,NA,NA,42
76091555,2,3,181,1,1063,0,0,0,NA,NA,42
76091555,2,3,182,2,1123,0,0,0,NA,NA,42
76091555,2,3,183,2,1031,1,0,0,NA,NA,42
76091555,2,3,184,2,1074,0,0,0,NA,NA,42
76091555,2,3,185,2,1117,0,0,0,NA,NA,42
76091555,2,3,186,2,1010,0,0,0,NA,NA,42
76091555,2,3,187,1,1093,1,0,0,NA,NA,42
76091555,2,3,188,1,1084,1,0,0,NA,NA,42
76091555,2,3,189,1,1342,0,1,0,NA,NA,42
76091555,2,3,190,2,982,0,0,0,NA,NA,42
76091555,2,3,191,2,995,0,0,0,NA,NA,42
76091555,2,3,192,2,1008,0,0,0,NA,NA,42
76091555,2,3,193,2,1008,0,0,0,NA,NA,42
76091555,2,3,194,1,1044,1,1,0,NA,NA,42
76091555,2,3,195,1,1117,1,1,0,NA,NA,42
76091555,2,3,196,1,974,1,1,0,NA,NA,42
76091555,2,3,197,1,1118,1,1,0,NA,NA,42
76091555,2,3,198,1,1057,0,0,0,NA,NA,42
76091555,2,3,199,2,982,0,0,0,NA,NA,42
76091555,2,3,200,2,1088,0,0,0,NA,NA,42
76091555,2,3,201,2,1020,0,0,2,L,2,42
85356240,1,1,2,2,1269,1,0,0,NA,NA,10
85356240,1,1,3,2,1091,0,0,0,NA,NA,10
85356240,1,1,4,2,1106,0,0,0,NA,NA,10
85356240,1,1,5,1,1016,1,0,0,NA,NA,10
85356240,1,1,6,2,987,1,0,0,NA,NA,10
85356240,1,1,7,2,1003,1,0,0,NA,NA,10
85356240,1,1,8,2,887,1,0,0,NA,NA,10
85356240,1,1,9,1,1090,1,0,0,NA,NA,10
85356240,1,1,10,2,981,0,0,0,NA,NA,10
85356240,1,1,11,1,985,1,0,0,NA,NA,10
85356240,1,1,12,1,895,1,1,0,NA,NA,10
85356240,1,1,13,1,1020,1,0,0,NA,NA,10
85356240,1,1,14,1,877,1,0,0,NA,NA,10
85356240,1,1,15,1,859,0,1,0,NA,NA,10
85356240,1,1,16,1,1089,0,0,0,NA,NA,10
85356240,1,1,17,1,905,0,0,0,NA,NA,10
85356240,1,1,18,1,1076,0,0,0,NA,NA,10
85356240,1,1,19,2,1051,0,0,0,NA,NA,10
85356240,1,1,20,2,1163,0,0,0,NA,NA,10
85356240,1,1,21,1,1404,1,0,0,NA,NA,10
85356240,1,1,22,1,1633,1,0,0,NA,NA,10
85356240,1,1,23,1,1049,0,0,0,NA,NA,10
85356240,1,1,24,1,934,0,0,0,NA,NA,10
85356240,1,1,25,1,1238,1,1,0,NA,NA,10
85356240,1,1,26,2,693,1,0,0,NA,NA,10
85356240,1,1,27,1,1008,0,0,0,NA,NA,10
85356240,1,1,28,2,1091,1,0,0,NA,NA,10
85356240,1,1,29,1,1062,0,0,0,NA,NA,10
85356240,1,1,30,2,895,0,0,0,NA,NA,10
85356240,1,1,31,2,984,0,0,0,NA,NA,10
85356240,1,1,32,1,1168,0,0,0,NA,NA,10
85356240,1,1,33,2,1021,0,0,0,NA,NA,10
85356240,1,1,34,1,871,1,0,0,NA,NA,10
85356240,1,1,35,2,918,0,0,0,NA,NA,10
85356240,1,1,36,1,1019,0,0,0,NA,NA,10
85356240,1,1,37,2,932,1,0,0,NA,NA,10
85356240,1,1,38,1,924,0,0,0,NA,NA,10
85356240,1,1,39,2,931,0,0,0,NA,NA,10
85356240,1,1,40,2,858,0,0,1,L,1,10
85356240,1,1,41,2,932,0,0,0,NA,NA,10
85356240,1,1,42,1,804,1,0,0,NA,NA,10
85356240,1,1,43,1,863,1,0,0,NA,NA,10
85356240,1,1,44,1,811,0,0,0,NA,NA,10
85356240,1,1,45,2,875,0,0,0,NA,NA,10
85356240,1,1,46,1,851,1,0,0,NA,NA,10
85356240,1,1,47,2,874,1,0,0,NA,NA,10
85356240,1,1,48,2,801,0,0,0,NA,NA,10
85356240,1,1,49,1,841,0,0,0,NA,NA,10
85356240,1,1,50,1,850,1,0,0,NA,NA,10
85356240,1,1,51,1,863,0,0,0,NA,NA,10
85356240,1,1,52,2,708,0,0,0,NA,NA,10
85356240,1,1,53,1,892,1,0,0,NA,NA,10
85356240,1,1,54,1,975,1,0,0,NA,NA,10
85356240,1,1,55,1,895,1,0,0,NA,NA,10
85356240,1,1,56,1,1038,1,0,0,NA,NA,10
85356240,1,1,57,1,1081,1,0,0,NA,NA,10
85356240,1,1,58,1,985,0,0,0,NA,NA,10
85356240,1,1,59,1,900,1,0,0,NA,NA,10
85356240,1,1,60,1,840,0,1,0,NA,NA,10
85356240,1,1,61,1,1046,0,1,0,NA,NA,10
85356240,1,1,62,2,892,0,0,0,NA,NA,10
85356240,1,1,63,1,868,1,1,0,NA,NA,10
85356240,1,1,64,2,927,1,0,0,NA,NA,10
85356240,1,1,65,2,907,0,0,0,NA,NA,10
85356240,1,1,66,1,880,0,0,0,NA,NA,10
85356240,1,1,67,2,946,1,0,0,NA,NA,10
85356240,1,1,68,1,925,0,1,0,NA,NA,10
85356240,1,1,69,2,942,1,0,0,NA,NA,10
85356240,1,1,70,1,780,0,0,0,NA,NA,10
85356240,1,1,71,2,862,0,0,0,NA,NA,10
85356240,1,1,72,2,847,1,0,0,NA,NA,10
85356240,1,1,73,2,852,1,0,0,NA,NA,10
85356240,1,1,74,2,841,1,0,0,NA,NA,10
85356240,1,1,75,1,877,0,0,0,NA,NA,10
85356240,1,1,76,1,912,1,0,0,NA,NA,10
85356240,1,1,77,1,892,0,1,0,NA,NA,10
85356240,1,1,78,2,729,0,0,0,NA,NA,10
85356240,1,1,79,2,926,1,0,0,NA,NA,10
85356240,1,1,80,2,1040,1,0,0,NA,NA,10
85356240,1,1,81,1,938,0,0,0,NA,NA,10
85356240,1,1,82,2,951,0,0,0,NA,NA,10
85356240,1,1,83,2,963,1,0,0,NA,NA,10
85356240,1,1,84,2,960,1,0,0,NA,NA,10
85356240,1,1,85,2,913,1,0,0,NA,NA,10
85356240,1,1,86,1,748,0,1,0,NA,NA,10
85356240,1,1,87,2,1042,1,0,0,NA,NA,10
85356240,1,1,88,1,884,0,0,0,NA,NA,10
85356240,1,1,89,2,1013,1,0,0,NA,NA,10
85356240,1,1,90,2,967,1,0,0,NA,NA,10
85356240,1,1,91,2,1210,0,0,0,NA,NA,10
85356240,1,1,92,2,907,0,0,0,NA,NA,10
85356240,1,1,93,1,866,1,0,0,NA,NA,10
85356240,1,1,94,2,901,0,0,0,NA,NA,10
85356240,1,1,95,2,867,1,0,0,NA,NA,10
85356240,1,1,96,2,876,0,0,0,NA,NA,10
85356240,1,1,97,1,884,1,1,0,NA,NA,10
85356240,1,1,98,2,913,0,0,0,NA,NA,10
85356240,1,1,99,2,1003,1,0,0,NA,NA,10
85356240,1,1,100,2,798,1,0,0,NA,NA,10
85356240,1,1,101,2,1029,1,0,0,NA,NA,10
85356240,1,1,102,2,969,0,0,0,NA,NA,10
85356240,1,1,103,2,1074,0,0,0,NA,NA,10
85356240,1,1,104,1,1028,1,1,0,NA,NA,10
85356240,1,1,105,1,888,1,1,0,NA,NA,10
85356240,1,1,106,1,940,1,1,0,NA,NA,10
85356240,1,1,107,1,910,0,1,0,NA,NA,10
85356240,1,1,108,1,863,1,0,0,NA,NA,10
85356240,1,1,109,2,832,1,0,0,NA,NA,10
85356240,1,1,110,1,880,1,1,0,NA,NA,10
85356240,1,1,111,2,928,0,0,0,NA,NA,10
85356240,1,1,112,2,885,0,0,0,NA,NA,10
85356240,1,1,113,1,894,1,1,0,NA,NA,10
85356240,1,1,114,2,896,0,0,0,NA,NA,10
85356240,1,1,115,1,833,1,0,0,NA,NA,10
85356240,1,1,116,2,1102,0,0,0,NA,NA,10
85356240,1,1,117,1,873,0,1,0,NA,NA,10
85356240,1,1,118,2,878,0,0,0,NA,NA,10
85356240,1,1,119,2,843,1,0,0,NA,NA,10
85356240,1,1,120,1,914,1,1,0,NA,NA,10
85356240,1,1,121,2,910,0,0,0,NA,NA,10
85356240,1,1,122,1,876,0,1,0,NA,NA,10
85356240,1,1,123,1,898,1,1,0,NA,NA,10
85356240,1,1,124,1,877,1,0,0,NA,NA,10
85356240,1,1,125,1,829,1,1,0,NA,NA,10
85356240,1,1,126,2,905,0,0,0,NA,NA,10
85356240,1,1,127,1,998,1,1,0,NA,NA,10
85356240,1,1,128,1,973,0,0,0,NA,NA,10
85356240,1,1,129,2,997,0,0,0,NA,NA,10
85356240,1,1,130,1,1305,0,1,0,NA,NA,10
85356240,1,1,131,1,961,1,1,0,NA,NA,10
85356240,1,1,132,1,953,0,1,0,NA,NA,10
85356240,1,1,133,2,1100,0,0,0,NA,NA,10
85356240,1,1,134,2,951,0,0,0,NA,NA,10
85356240,1,1,135,1,941,0,0,0,NA,NA,10
85356240,1,1,136,2,903,0,0,0,NA,NA,10
85356240,1,1,137,1,852,0,0,0,NA,NA,10
85356240,1,1,138,1,969,0,0,0,NA,NA,10
85356240,1,1,139,1,921,0,0,0,NA,NA,10
85356240,1,1,140,2,865,1,0,0,NA,NA,10
85356240,1,1,141,1,911,0,1,0,NA,NA,10
85356240,1,1,142,2,996,1,0,0,NA,NA,10
85356240,1,1,143,2,1007,0,0,0,NA,NA,10
85356240,1,1,144,1,941,0,1,0,NA,NA,10
85356240,1,1,145,1,990,1,0,0,NA,NA,10
85356240,1,1,146,1,856,1,1,0,NA,NA,10
85356240,1,1,147,2,918,1,0,0,NA,NA,10
85356240,1,1,148,2,991,1,0,0,NA,NA,10
85356240,1,1,149,2,972,0,0,0,NA,NA,10
85356240,1,1,150,2,937,0,0,0,NA,NA,10
85356240,1,1,151,2,958,0,0,0,NA,NA,10
85356240,1,1,152,1,1043,0,0,2,L,2,10
85356240,1,1,153,2,907,1,0,0,NA,NA,10
85356240,1,1,154,1,864,0,1,0,NA,NA,10
85356240,1,1,155,2,856,0,0,0,NA,NA,10
85356240,1,1,156,1,846,1,1,0,NA,NA,10
85356240,1,1,157,1,989,0,0,0,NA,NA,10
85356240,1,1,158,1,998,1,0,0,NA,NA,10
85356240,1,1,159,1,893,0,1,0,NA,NA,10
85356240,1,1,160,1,1018,1,0,0,NA,NA,10
85356240,1,1,161,1,875,0,0,0,NA,NA,10
85356240,1,1,162,1,854,0,0,0,NA,NA,10
85356240,1,1,163,2,870,0,0,0,NA,NA,10
85356240,1,1,164,1,993,0,0,0,NA,NA,10
85356240,1,1,165,2,899,0,0,0,NA,NA,10
85356240,1,1,166,1,862,1,0,0,NA,NA,10
85356240,1,1,167,2,905,0,0,0,NA,NA,10
85356240,1,1,168,2,723,1,0,0,NA,NA,10
85356240,1,1,169,1,945,1,0,0,NA,NA,10
85356240,1,1,170,1,898,0,0,0,NA,NA,10
85356240,1,1,171,1,965,0,0,0,NA,NA,10
85356240,1,1,172,2,1579,0,0,0,NA,NA,10
85356240,1,1,173,1,1095,1,1,0,NA,NA,10
85356240,1,1,174,2,1088,0,0,0,NA,NA,10
85356240,1,1,175,2,905,1,0,0,NA,NA,10
85356240,1,1,176,2,864,0,0,0,NA,NA,10
85356240,1,1,177,2,914,0,0,0,NA,NA,10
85356240,1,1,178,1,951,0,1,0,NA,NA,10
85356240,1,1,179,1,912,1,1,0,NA,NA,10
85356240,1,1,180,1,976,0,1,0,NA,NA,10
85356240,1,1,181,1,742,0,0,0,NA,NA,10
85356240,1,1,182,1,901,0,0,0,NA,NA,10
85356240,1,1,183,1,855,0,0,0,NA,NA,10
85356240,1,1,184,2,1007,1,0,0,NA,NA,10
85356240,1,1,185,2,995,1,0,0,NA,NA,10
85356240,1,1,186,2,1029,0,0,0,NA,NA,10
85356240,1,1,187,1,905,0,1,0,NA,NA,10
85356240,1,1,188,2,1062,1,0,0,NA,NA,10
85356240,1,1,189,2,971,1,0,0,NA,NA,10
85356240,1,1,190,2,948,0,0,0,NA,NA,10
85356240,1,1,191,2,992,0,0,0,NA,NA,10
85356240,1,1,192,2,967,1,0,0,NA,NA,10
85356240,1,1,193,2,1017,1,0,0,NA,NA,10
85356240,1,1,194,2,1004,1,0,0,NA,NA,10
85356240,1,1,195,2,1066,1,0,0,NA,NA,10
85356240,1,1,196,2,956,0,0,0,NA,NA,10
85356240,1,1,197,2,980,0,0,0,NA,NA,10
85356240,1,1,198,2,979,0,0,0,NA,NA,10
85356240,1,1,199,2,983,0,0,0,NA,NA,10
85356240,1,1,200,2,1115,0,0,0,NA,NA,10
85356240,1,1,201,2,955,0,0,2,L,2,10
85356240,2,3,1,2,1557,1,0,0,NA,NA,5
85356240,2,3,2,2,1002,0,0,0,NA,NA,5
85356240,2,3,3,2,1016,1,0,0,NA,NA,5
85356240,2,3,4,2,948,0,0,0,NA,NA,5
85356240,2,3,5,2,938,1,0,0,NA,NA,5
85356240,2,3,6,2,978,0,0,0,NA,NA,5
85356240,2,3,7,2,983,0,0,0,NA,NA,5
85356240,2,3,8,1,1322,1,0,0,NA,NA,5
85356240,2,3,9,1,1021,1,0,0,NA,NA,5
85356240,2,3,10,1,966,1,0,0,NA,NA,5
85356240,2,3,11,1,962,1,0,0,NA,NA,5
85356240,2,3,12,1,1039,1,1,0,NA,NA,5
85356240,2,3,13,1,1023,1,0,0,NA,NA,5
85356240,2,3,14,1,962,1,0,0,NA,NA,5
85356240,2,3,15,1,957,0,0,0,NA,NA,5
85356240,2,3,16,1,1012,0,0,0,NA,NA,5
85356240,2,3,17,1,969,1,0,0,NA,NA,5
85356240,2,3,18,1,1029,1,0,0,NA,NA,5
85356240,2,3,19,1,981,0,0,0,NA,NA,5
85356240,2,3,20,1,973,0,0,0,NA,NA,5
85356240,2,3,21,1,1000,0,0,0,NA,NA,5
85356240,2,3,22,1,1008,0,0,0,NA,NA,5
85356240,2,3,23,2,1019,0,0,0,NA,NA,5
85356240,2,3,24,2,1194,0,0,0,NA,NA,5
85356240,2,3,25,1,1151,0,0,0,NA,NA,5
85356240,2,3,26,2,959,0,0,2,R,2,5
85356240,2,3,27,2,1017,0,0,0,NA,NA,5
85356240,2,3,28,1,1029,0,1,0,NA,NA,5
85356240,2,3,29,1,1018,0,0,0,NA,NA,5
85356240,2,3,30,1,1133,1,1,0,NA,NA,5
85356240,2,3,31,2,899,1,0,0,NA,NA,5
85356240,2,3,32,1,896,0,0,0,NA,NA,5
85356240,2,3,33,1,820,0,0,0,NA,NA,5
85356240,2,3,34,2,792,0,0,0,NA,NA,5
85356240,2,3,35,1,821,1,0,0,NA,NA,5
85356240,2,3,36,1,992,0,0,0,NA,NA,5
85356240,2,3,37,1,917,0,1,0,NA,NA,5
85356240,2,3,38,1,930,1,0,0,NA,NA,5
85356240,2,3,39,1,892,0,0,0,NA,NA,5
85356240,2,3,40,1,837,0,0,0,NA,NA,5
85356240,2,3,41,2,949,0,0,0,NA,NA,5
85356240,2,3,42,1,925,0,1,0,NA,NA,5
85356240,2,3,43,1,934,0,1,0,NA,NA,5
85356240,2,3,44,2,657,0,0,0,NA,NA,5
85356240,2,3,45,1,907,0,0,0,NA,NA,5
85356240,2,3,46,2,877,0,0,0,NA,NA,5
85356240,2,3,47,2,927,0,0,0,NA,NA,5
85356240,2,3,48,2,888,0,0,0,NA,NA,5
85356240,2,3,49,2,868,0,0,0,NA,NA,5
85356240,2,3,50,2,920,0,0,0,NA,NA,5
85356240,2,3,51,1,880,0,1,0,NA,NA,5
85356240,2,3,52,2,942,1,0,0,NA,NA,5
85356240,2,3,53,2,972,0,0,0,NA,NA,5
85356240,2,3,54,2,996,0,0,0,NA,NA,5
85356240,2,3,55,1,792,0,0,0,NA,NA,5
85356240,2,3,56,2,1284,0,0,0,NA,NA,5
85356240,2,3,57,2,885,1,0,0,NA,NA,5
85356240,2,3,58,1,901,1,0,0,NA,NA,5
85356240,2,3,59,1,903,1,1,0,NA,NA,5
85356240,2,3,60,2,957,0,0,0,NA,NA,5
85356240,2,3,61,1,857,0,1,0,NA,NA,5
85356240,2,3,62,2,918,1,0,0,NA,NA,5
85356240,2,3,63,1,907,1,1,0,NA,NA,5
85356240,2,3,64,1,905,0,1,0,NA,NA,5
85356240,2,3,65,2,953,0,0,0,NA,NA,5
85356240,2,3,66,1,882,1,0,0,NA,NA,5
85356240,2,3,67,1,968,1,1,0,NA,NA,5
85356240,2,3,68,1,932,0,0,0,NA,NA,5
85356240,2,3,69,1,903,0,1,0,NA,NA,5
85356240,2,3,70,1,1032,1,1,0,NA,NA,5
85356240,2,3,71,2,911,0,0,0,NA,NA,5
85356240,2,3,72,1,890,0,1,0,NA,NA,5
85356240,2,3,73,2,944,1,0,0,NA,NA,5
85356240,2,3,74,2,963,1,0,0,NA,NA,5
85356240,2,3,75,2,1018,0,0,0,NA,NA,5
85356240,2,3,76,2,909,0,0,0,NA,NA,5
85356240,2,3,77,2,1012,0,0,0,NA,NA,5
85356240,2,3,78,2,921,1,0,0,NA,NA,5
85356240,2,3,79,2,974,1,0,0,NA,NA,5
85356240,2,3,80,2,988,1,0,0,NA,NA,5
85356240,2,3,81,2,1015,1,0,0,NA,NA,5
85356240,2,3,82,1,970,1,1,0,NA,NA,5
85356240,2,3,83,2,1019,0,0,0,NA,NA,5
85356240,2,3,84,2,939,0,0,0,NA,NA,5
85356240,2,3,85,2,1006,0,0,0,NA,NA,5
85356240,2,3,86,2,992,0,0,0,NA,NA,5
85356240,2,3,87,2,1091,0,0,0,NA,NA,5
85356240,2,3,88,1,1067,0,1,0,NA,NA,5
85356240,2,3,89,1,1029,1,0,0,NA,NA,5
85356240,2,3,90,1,971,0,0,0,NA,NA,5
85356240,2,3,91,1,1010,1,1,0,NA,NA,5
85356240,2,3,92,1,1291,1,1,0,NA,NA,5
85356240,2,3,93,2,1142,0,0,0,NA,NA,5
85356240,2,3,94,2,1048,0,0,0,NA,NA,5
85356240,2,3,95,2,1002,0,0,0,NA,NA,5
85356240,2,3,96,2,1034,0,0,0,NA,NA,5
85356240,2,3,97,2,875,0,0,0,NA,NA,5
85356240,2,3,98,1,1101,0,0,0,NA,NA,5
85356240,2,3,99,2,1087,1,0,0,NA,NA,5
85356240,2,3,100,1,955,1,0,0,NA,NA,5
85356240,2,3,101,1,1046,0,0,0,NA,NA,5
85356240,2,3,102,2,1139,0,0,0,NA,NA,5
85356240,2,3,103,1,905,0,0,0,NA,NA,5
85356240,2,3,104,2,1156,0,0,0,NA,NA,5
85356240,2,3,105,1,934,0,0,0,NA,NA,5
85356240,2,3,106,1,1275,0,1,0,NA,NA,5
85356240,2,3,107,2,970,0,0,0,NA,NA,5
85356240,2,3,108,2,828,0,0,0,NA,NA,5
85356240,2,3,109,1,807,0,0,0,NA,NA,5
85356240,2,3,110,2,925,1,0,0,NA,NA,5
85356240,2,3,111,1,883,0,0,0,NA,NA,5
85356240,2,3,112,1,902,0,0,0,NA,NA,5
85356240,2,3,113,2,893,1,0,0,NA,NA,5
85356240,2,3,114,2,1009,1,0,0,NA,NA,5
85356240,2,3,115,2,1003,0,0,0,NA,NA,5
85356240,2,3,116,2,1137,1,0,0,NA,NA,5
85356240,2,3,117,2,1040,1,0,0,NA,NA,5
85356240,2,3,118,2,990,1,0,0,NA,NA,5
85356240,2,3,119,2,976,1,0,0,NA,NA,5
85356240,2,3,120,2,1058,1,0,0,NA,NA,5
85356240,2,3,121,2,1037,1,0,0,NA,NA,5
85356240,2,3,122,2,951,1,0,0,NA,NA,5
85356240,2,3,123,2,943,1,0,0,NA,NA,5
85356240,2,3,124,2,995,0,0,0,NA,NA,5
85356240,2,3,125,2,1011,1,0,0,NA,NA,5
85356240,2,3,126,2,950,0,0,2,R,2,5
85356240,2,3,127,2,1794,1,0,0,NA,NA,5
85356240,2,3,128,2,937,0,0,0,NA,NA,5
85356240,2,3,129,2,998,0,0,0,NA,NA,5
85356240,2,3,130,2,997,0,0,0,NA,NA,5
85356240,2,3,131,2,931,0,0,0,NA,NA,5
85356240,2,3,132,2,1028,1,0,0,NA,NA,5
85356240,2,3,133,2,1131,1,0,0,NA,NA,5
85356240,2,3,134,2,988,0,0,0,NA,NA,5
85356240,2,3,135,2,960,1,0,0,NA,NA,5
85356240,2,3,136,2,973,0,0,0,NA,NA,5
85356240,2,3,137,2,999,0,0,0,NA,NA,5
85356240,2,3,138,2,1000,0,0,0,NA,NA,5
85356240,2,3,139,2,1009,1,0,0,NA,NA,5
85356240,2,3,140,2,1025,1,0,0,NA,NA,5
85356240,2,3,141,2,942,1,0,0,NA,NA,5
85356240,2,3,142,2,1035,1,0,0,NA,NA,5
85356240,2,3,143,2,1242,1,0,0,NA,NA,5
85356240,2,3,144,2,969,1,0,0,NA,NA,5
85356240,2,3,145,2,972,1,0,0,NA,NA,5
85356240,2,3,146,2,993,0,0,0,NA,NA,5
85356240,2,3,147,2,982,1,0,0,NA,NA,5
85356240,2,3,148,2,967,0,0,0,NA,NA,5
85356240,2,3,149,2,929,0,0,0,NA,NA,5
85356240,2,3,150,2,1257,1,0,0,NA,NA,5
85356240,2,3,151,2,998,0,0,0,NA,NA,5
85356240,2,3,152,1,903,1,1,0,NA,NA,5
85356240,2,3,153,2,1099,0,0,0,NA,NA,5
85356240,2,3,154,2,935,1,0,0,NA,NA,5
85356240,2,3,155,2,1006,0,0,0,NA,NA,5
85356240,2,3,156,2,934,0,0,0,NA,NA,5
85356240,2,3,157,2,1034,0,0,0,NA,NA,5
85356240,2,3,158,2,962,0,0,0,NA,NA,5
85356240,2,3,159,2,1019,0,0,0,NA,NA,5
85356240,2,3,160,2,929,0,0,0,NA,NA,5
85356240,2,3,161,1,893,1,0,0,NA,NA,5
85356240,2,3,162,1,964,0,1,0,NA,NA,5
85356240,2,3,163,2,1102,0,0,0,NA,NA,5
85356240,2,3,164,2,988,0,0,0,NA,NA,5
85356240,2,3,165,1,1181,1,1,0,NA,NA,5
85356240,2,3,166,2,1108,0,0,0,NA,NA,5
85356240,2,3,167,2,1028,0,0,0,NA,NA,5
85356240,2,3,168,2,1029,0,0,0,NA,NA,5
85356240,2,3,169,1,998,1,0,0,NA,NA,5
85356240,2,3,170,1,996,1,1,0,NA,NA,5
85356240,2,3,171,1,1039,0,0,0,NA,NA,5
85356240,2,3,172,1,991,1,1,0,NA,NA,5
85356240,2,3,173,1,1016,0,0,0,NA,NA,5
85356240,2,3,174,2,986,0,0,0,NA,NA,5
85356240,2,3,175,2,1015,0,0,0,NA,NA,5
85356240,2,3,176,2,1012,0,0,0,NA,NA,5
85356240,2,3,177,2,1014,0,0,0,NA,NA,5
85356240,2,3,178,2,1069,0,0,0,NA,NA,5
85356240,2,3,179,1,947,1,1,0,NA,NA,5
85356240,2,3,180,1,1008,0,1,0,NA,NA,5
85356240,2,3,181,2,1036,0,0,0,NA,NA,5
85356240,2,3,182,2,977,0,0,0,NA,NA,5
85356240,2,3,183,2,1006,0,0,0,NA,NA,5
85356240,2,3,184,2,1004,0,0,0,NA,NA,5
85356240,2,3,185,2,1010,0,0,0,NA,NA,5
85356240,2,3,186,2,1017,0,0,0,NA,NA,5
85356240,2,3,187,2,1034,0,0,0,NA,NA,5
85356240,2,3,188,2,967,0,0,0,NA,NA,5
85356240,2,3,189,2,1049,0,0,0,NA,NA,5
85356240,2,3,190,2,936,0,0,0,NA,NA,5
85356240,2,3,191,2,1041,0,0,0,NA,NA,5
85356240,2,3,192,2,982,0,0,0,NA,NA,5
85356240,2,3,193,2,1007,0,0,0,NA,NA,5
85356240,2,3,194,2,950,0,0,0,NA,NA,5
85356240,2,3,195,2,1012,0,0,0,NA,NA,5
85356240,2,3,196,2,1123,1,0,0,NA,NA,5
85356240,2,3,197,2,987,0,0,0,NA,NA,5
85356240,2,3,198,2,977,0,0,0,NA,NA,5
85356240,2,3,199,2,1026,0,0,0,NA,NA,5
85356240,2,3,200,2,1011,1,0,0,NA,NA,5
85356240,2,3,201,2,971,0,0,1,R,1,5
99013662,1,3,1,1,1607,1,0,0,NA,NA,18
99013662,1,3,2,1,1544,0,0,0,NA,NA,18
99013662,1,3,3,1,1698,1,0,0,NA,NA,18
99013662,1,3,4,1,1692,0,0,0,NA,NA,18
99013662,1,3,5,1,1689,1,0,0,NA,NA,18
99013662,1,3,6,1,1491,0,0,0,NA,NA,18
99013662,1,3,7,2,1149,0,0,0,NA,NA,18
99013662,1,3,8,2,1411,0,0,0,NA,NA,18
99013662,1,3,9,1,1298,0,0,0,NA,NA,18
99013662,1,3,10,1,1310,1,1,0,NA,NA,18
99013662,1,3,11,2,1347,1,0,0,NA,NA,18
99013662,1,3,12,2,1584,0,0,0,NA,NA,18
99013662,1,3,13,2,1197,0,0,0,NA,NA,18
99013662,1,3,14,1,1109,0,0,0,NA,NA,18
99013662,1,3,15,1,1177,0,0,0,NA,NA,18
99013662,1,3,16,1,1208,0,0,0,NA,NA,18
99013662,1,3,17,1,2283,0,1,0,NA,NA,18
99013662,1,3,18,1,1702,0,0,0,NA,NA,18
99013662,1,3,19,2,1102,0,0,0,NA,NA,18
99013662,1,3,20,2,1169,0,0,0,NA,NA,18
99013662,1,3,21,1,1468,1,0,0,NA,NA,18
99013662,1,3,22,2,1186,0,0,0,NA,NA,18
99013662,1,3,23,2,1219,0,0,0,NA,NA,18
99013662,1,3,24,2,1150,1,0,0,NA,NA,18
99013662,1,3,25,2,1602,0,0,0,NA,NA,18
99013662,1,3,26,2,1465,0,0,0,NA,NA,18
99013662,1,3,27,2,1348,1,0,0,NA,NA,18
99013662,1,3,28,1,1366,1,1,0,NA,NA,18
99013662,1,3,29,2,1590,0,0,0,NA,NA,18
99013662,1,3,30,2,1135,0,0,0,NA,NA,18
99013662,1,3,31,1,1609,0,1,0,NA,NA,18
99013662,1,3,32,1,1497,0,1,0,NA,NA,18
99013662,1,3,33,1,1097,1,0,0,NA,NA,18
99013662,1,3,34,1,1116,0,1,0,NA,NA,18
99013662,1,3,35,1,1185,0,0,0,NA,NA,18
99013662,1,3,36,1,1597,0,0,0,NA,NA,18
99013662,1,3,37,1,1461,0,1,0,NA,NA,18
99013662,1,3,38,2,1539,0,0,1,R,1,18
99013662,1,3,39,2,1528,0,0,0,NA,NA,18
99013662,1,3,40,2,1581,0,0,0,NA,NA,18
99013662,1,3,41,1,1032,0,1,0,NA,NA,18
99013662,1,3,42,1,1347,0,1,0,NA,NA,18
99013662,1,3,43,1,1010,0,1,0,NA,NA,18
99013662,1,3,44,2,1007,0,0,0,NA,NA,18
99013662,1,3,45,2,1023,0,0,0,NA,NA,18
99013662,1,3,46,2,1043,0,0,0,NA,NA,18
99013662,1,3,47,2,1603,0,0,0,NA,NA,18
99013662,1,3,48,1,1034,0,1,0,NA,NA,18
99013662,1,3,49,1,961,0,1,0,NA,NA,18
99013662,1,3,50,1,2055,1,0,0,NA,NA,18
99013662,1,3,51,1,1452,0,0,0,NA,NA,18
99013662,1,3,52,1,1391,0,0,0,NA,NA,18
99013662,1,3,53,2,1719,1,0,0,NA,NA,18
99013662,1,3,54,2,1072,1,0,0,NA,NA,18
99013662,1,3,55,2,1043,0,0,0,NA,NA,18
99013662,1,3,56,2,1011,0,0,0,NA,NA,18
99013662,1,3,57,2,1071,1,0,0,NA,NA,18
99013662,1,3,58,2,1033,1,0,0,NA,NA,18
99013662,1,3,59,2,1117,0,0,0,NA,NA,18
99013662,1,3,60,2,1077,1,0,0,NA,NA,18
99013662,1,3,61,2,1167,1,0,0,NA,NA,18
99013662,1,3,62,2,1033,0,0,0,NA,NA,18
99013662,1,3,63,2,1166,1,0,0,NA,NA,18
99013662,1,3,64,2,1063,1,0,0,NA,NA,18
99013662,1,3,65,2,1069,1,0,0,NA,NA,18
99013662,1,3,66,2,1034,0,0,0,NA,NA,18
99013662,1,3,67,2,1214,1,0,0,NA,NA,18
99013662,1,3,68,2,1051,0,0,0,NA,NA,18
99013662,1,3,69,2,1081,1,0,0,NA,NA,18
99013662,1,3,70,2,1013,1,0,0,NA,NA,18
99013662,1,3,71,2,1083,1,0,0,NA,NA,18
99013662,1,3,72,2,1091,0,0,0,NA,NA,18
99013662,1,3,73,2,1025,1,0,0,NA,NA,18
99013662,1,3,74,2,1111,0,0,0,NA,NA,18
99013662,1,3,75,2,1076,0,0,0,NA,NA,18
99013662,1,3,76,2,1238,1,0,0,NA,NA,18
99013662,1,3,77,2,1031,0,0,0,NA,NA,18
99013662,1,3,78,2,1022,0,0,0,NA,NA,18
99013662,1,3,79,2,1124,1,0,0,NA,NA,18
99013662,1,3,80,2,1169,1,0,0,NA,NA,18
99013662,1,3,81,2,1050,0,0,0,NA,NA,18
99013662,1,3,82,2,1276,0,0,0,NA,NA,18
99013662,1,3,83,2,1033,1,0,0,NA,NA,18
99013662,1,3,84,2,1014,1,0,0,NA,NA,18
99013662,1,3,85,2,1078,0,0,0,NA,NA,18
99013662,1,3,86,2,1069,0,0,0,NA,NA,18
99013662,1,3,87,2,1026,0,0,0,NA,NA,18
99013662,1,3,88,1,1049,1,0,0,NA,NA,18
99013662,1,3,89,1,1090,1,0,0,NA,NA,18
99013662,1,3,90,1,1152,0,0,0,NA,NA,18
99013662,1,3,91,1,1128,1,0,0,NA,NA,18
99013662,1,3,92,1,1165,1,0,0,NA,NA,18
99013662,1,3,93,1,1071,1,1,0,NA,NA,18
99013662,1,3,94,1,1271,1,0,0,NA,NA,18
99013662,1,3,95,1,1183,1,0,0,NA,NA,18
99013662,1,3,96,1,1102,1,0,0,NA,NA,18
99013662,1,3,97,1,1174,0,0,0,NA,NA,18
99013662,1,3,98,1,1243,1,1,0,NA,NA,18
99013662,1,3,99,1,1470,0,1,0,NA,NA,18
99013662,1,3,100,1,1192,0,0,0,NA,NA,18
99013662,1,3,101,1,1233,1,0,0,NA,NA,18
99013662,1,3,102,1,1205,0,0,0,NA,NA,18
99013662,1,3,103,1,1385,0,0,0,NA,NA,18
99013662,1,3,104,1,1116,0,0,2,R,2,18
99013662,1,3,105,1,1285,0,0,0,NA,NA,18
99013662,1,3,106,2,1233,0,0,0,NA,NA,18
99013662,1,3,107,2,1058,1,0,0,NA,NA,18
99013662,1,3,108,2,1173,1,0,0,NA,NA,18
99013662,1,3,109,2,1165,0,0,0,NA,NA,18
99013662,1,3,110,2,1035,0,0,0,NA,NA,18
99013662,1,3,111,2,1040,0,0,0,NA,NA,18
99013662,1,3,112,1,1648,0,0,0,NA,NA,18
99013662,1,3,113,1,2270,0,0,0,NA,NA,18
99013662,1,3,114,1,1844,0,1,0,NA,NA,18
99013662,1,3,115,2,1056,1,0,0,NA,NA,18
99013662,1,3,116,2,1065,0,0,0,NA,NA,18
99013662,1,3,117,2,1073,1,0,0,NA,NA,18
99013662,1,3,118,2,1000,1,0,0,NA,NA,18
99013662,1,3,119,2,1187,1,0,0,NA,NA,18
99013662,1,3,120,2,1173,1,0,0,NA,NA,18
99013662,1,3,121,2,1201,1,0,0,NA,NA,18
99013662,1,3,122,2,1032,1,0,0,NA,NA,18
99013662,1,3,123,2,1543,1,0,0,NA,NA,18
99013662,1,3,124,2,1021,1,0,0,NA,NA,18
99013662,1,3,125,2,1023,0,0,0,NA,NA,18
99013662,1,3,126,2,1251,0,0,0,NA,NA,18
99013662,1,3,127,2,1042,1,0,0,NA,NA,18
99013662,1,3,128,2,1163,1,0,0,NA,NA,18
99013662,1,3,129,2,1324,0,0,0,NA,NA,18
99013662,1,3,130,2,1167,0,0,0,NA,NA,18
99013662,1,3,131,2,1042,1,0,0,NA,NA,18
99013662,1,3,132,2,1205,0,0,0,NA,NA,18
99013662,1,3,133,2,1056,1,0,0,NA,NA,18
99013662,1,3,134,2,1340,0,0,0,NA,NA,18
99013662,1,3,135,2,1064,1,0,0,NA,NA,18
99013662,1,3,136,2,1068,0,0,0,NA,NA,18
99013662,1,3,137,2,1207,0,0,0,NA,NA,18
99013662,1,3,138,2,1232,0,0,0,NA,NA,18
99013662,1,3,139,1,1042,0,0,0,NA,NA,18
99013662,1,3,140,1,1042,1,1,0,NA,NA,18
99013662,1,3,141,1,1498,1,0,0,NA,NA,18
99013662,1,3,142,1,983,0,1,0,NA,NA,18
99013662,1,3,143,1,1178,1,0,0,NA,NA,18
99013662,1,3,144,1,1029,0,1,0,NA,NA,18
99013662,1,3,145,1,1250,0,0,0,NA,NA,18
99013662,1,3,146,1,1141,0,1,0,NA,NA,18
99013662,1,3,147,2,1042,0,0,0,NA,NA,18
99013662,1,3,148,2,1033,0,0,0,NA,NA,18
99013662,1,3,149,2,1017,1,0,0,NA,NA,18
99013662,1,3,150,2,1094,0,0,0,NA,NA,18
99013662,1,3,151,2,1042,1,0,0,NA,NA,18
99013662,1,3,152,2,1046,1,0,0,NA,NA,18
99013662,1,3,153,2,1266,0,0,0,NA,NA,18
99013662,1,3,154,2,1037,0,0,0,NA,NA,18
99013662,1,3,155,2,1027,0,0,0,NA,NA,18
99013662,1,3,156,1,1031,0,1,0,NA,NA,18
99013662,1,3,157,1,1665,1,1,0,NA,NA,18
99013662,1,3,158,1,1047,1,1,0,NA,NA,18
99013662,1,3,159,1,1139,0,0,0,NA,NA,18
99013662,1,3,160,1,1386,1,0,0,NA,NA,18
99013662,1,3,161,1,1021,0,0,0,NA,NA,18
99013662,1,3,162,1,1232,0,1,0,NA,NA,18
99013662,1,3,163,1,1272,1,0,0,NA,NA,18
99013662,1,3,164,1,1083,0,1,0,NA,NA,18
99013662,1,3,165,1,1041,0,0,0,NA,NA,18
99013662,1,3,166,1,1029,0,1,0,NA,NA,18
99013662,1,3,167,2,999,0,0,0,NA,NA,18
99013662,1,3,168,2,1003,0,0,0,NA,NA,18
99013662,1,3,169,2,1999,1,0,0,NA,NA,18
99013662,1,3,170,2,971,0,0,0,NA,NA,18
99013662,1,3,171,2,1014,0,0,0,NA,NA,18
99013662,1,3,172,2,1113,0,0,0,NA,NA,18
99013662,1,3,173,1,993,0,1,0,NA,NA,18
99013662,1,3,174,1,1172,0,1,0,NA,NA,18
99013662,1,3,175,1,1061,0,1,0,NA,NA,18
99013662,1,3,176,2,1200,0,0,0,NA,NA,18
99013662,1,3,177,2,977,0,0,0,NA,NA,18
99013662,1,3,178,1,1470,0,1,0,NA,NA,18
99013662,1,3,179,2,1066,0,0,0,NA,NA,18
99013662,1,3,180,2,1044,0,0,0,NA,NA,18
99013662,1,3,181,2,1032,0,0,0,NA,NA,18
99013662,1,3,182,2,1863,1,0,0,NA,NA,18
99013662,1,3,183,2,1049,0,0,0,NA,NA,18
99013662,1,3,184,2,1103,0,0,0,NA,NA,18
99013662,1,3,185,2,1059,1,0,0,NA,NA,18
99013662,1,3,186,2,1298,0,0,0,NA,NA,18
99013662,1,3,187,1,992,0,0,0,NA,NA,18
99013662,1,3,188,1,1005,0,1,0,NA,NA,18
99013662,1,3,189,1,1123,0,0,0,NA,NA,18
99013662,1,3,190,1,1114,1,1,0,NA,NA,18
99013662,1,3,191,1,1066,1,1,0,NA,NA,18
99013662,1,3,192,1,1025,0,0,0,NA,NA,18
99013662,1,3,193,1,1054,0,1,0,NA,NA,18
99013662,1,3,194,1,1300,1,0,0,NA,NA,18
99013662,1,3,195,1,2002,0,1,0,NA,NA,18
99013662,1,3,196,1,1036,1,1,0,NA,NA,18
99013662,1,3,197,1,1067,0,1,0,NA,NA,18
99013662,1,3,198,1,1025,1,1,0,NA,NA,18
99013662,1,3,199,1,1016,1,1,0,NA,NA,18
99013662,1,3,200,1,992,0,1,0,NA,NA,18
99013662,1,3,201,1,1292,0,0,1,L,1,18
99013662,2,1,1,1,1509,1,0,0,NA,NA,30
99013662,2,1,2,1,1588,1,0,0,NA,NA,30
99013662,2,1,3,1,1093,1,1,0,NA,NA,30
99013662,2,1,4,1,1357,1,0,0,NA,NA,30
99013662,2,1,5,1,1229,0,0,0,NA,NA,30
99013662,2,1,6,1,1196,1,1,0,NA,NA,30
99013662,2,1,7,1,1261,0,0,0,NA,NA,30
99013662,2,1,8,1,1203,1,0,0,NA,NA,30
99013662,2,1,9,1,1431,0,0,0,NA,NA,30
99013662,2,1,10,1,1180,1,1,0,NA,NA,30
99013662,2,1,11,1,1109,0,0,0,NA,NA,30
99013662,2,1,12,2,1227,0,0,0,NA,NA,30
99013662,2,1,13,2,1012,1,0,0,NA,NA,30
99013662,2,1,14,2,1121,0,0,0,NA,NA,30
99013662,2,1,15,2,1131,1,0,0,NA,NA,30
99013662,2,1,16,2,1122,1,0,0,NA,NA,30
99013662,2,1,17,2,1011,0,0,0,NA,NA,30
99013662,2,1,18,2,1172,1,0,0,NA,NA,30
99013662,2,1,19,2,1050,0,0,0,NA,NA,30
99013662,2,1,20,2,977,1,0,0,NA,NA,30
99013662,2,1,21,2,933,1,0,0,NA,NA,30
99013662,2,1,22,2,1000,0,0,0,NA,NA,30
99013662,2,1,23,2,940,1,0,0,NA,NA,30
99013662,2,1,24,2,1403,0,0,0,NA,NA,30
